"","workerid","rt","trial_type","bias_%","trial","result","ntrials","response","matched"
"1","1",1708,"multi_trial",60,"1",1,50,"R",1
"2","1",500,"multi_trial",60,"2",1,50,"R",1
"3","1",460,"multi_trial",60,"3",1,50,"R",1
"4","1",373,"multi_trial",60,"4",1,50,"R",1
"5","1",357,"multi_trial",60,"5",0,50,"R",1
"6","1",357,"multi_trial",60,"6",0,50,"R",1
"7","1",364,"multi_trial",60,"7",1,50,"R",1
"8","1",325,"multi_trial",60,"8",1,50,"R",1
"9","1",325,"multi_trial",60,"9",1,50,"R",1
"10","1",588,"multi_trial",60,"10",1,50,"R",1
"11","1",268,"multi_trial",60,"11",1,50,"R",1
"12","1",302,"multi_trial",60,"12",0,50,"R",1
"13","1",261,"multi_trial",60,"13",1,50,"R",1
"14","1",293,"multi_trial",60,"14",1,50,"R",1
"15","1",212,"multi_trial",60,"15",1,50,"R",1
"16","1",284,"multi_trial",60,"16",1,50,"R",1
"17","1",243,"multi_trial",60,"17",1,50,"R",1
"18","1",333,"multi_trial",60,"18",1,50,"R",1
"19","1",428,"multi_trial",60,"19",1,50,"R",1
"20","1",382,"multi_trial",60,"20",1,50,"R",1
"21","1",326,"multi_trial",60,"21",0,50,"R",1
"22","1",365,"multi_trial",60,"22",1,50,"R",1
"23","1",165,"multi_trial",60,"23",1,50,"R",1
"24","1",174,"multi_trial",60,"24",0,50,"R",1
"25","1",45,"multi_trial",60,"25",0,50,"R",1
"26","1",301,"multi_trial",60,"26",1,50,"R",1
"27","1",293,"multi_trial",60,"27",1,50,"R",1
"28","1",188,"multi_trial",60,"28",1,50,"R",1
"29","1",52,"multi_trial",60,"29",0,50,"R",1
"30","1",76,"multi_trial",60,"30",0,50,"R",1
"31","1",47,"multi_trial",60,"31",1,50,"R",1
"32","1",133,"multi_trial",60,"32",1,50,"R",1
"33","1",1782,"multi_trial",60,"33",0,50,"R",1
"34","1",31,"multi_trial",60,"34",0,50,"R",1
"35","1",965,"multi_trial",60,"35",0,50,"R",1
"36","1",849,"multi_trial",60,"36",0,50,"R",1
"37","1",121,"multi_trial",60,"37",1,50,"R",1
"38","1",621,"multi_trial",60,"38",0,50,"R",1
"39","1",1117,"multi_trial",60,"39",1,50,"L",0
"40","1",381,"multi_trial",60,"40",0,50,"L",0
"41","1",143,"multi_trial",60,"41",1,50,"L",0
"42","1",221,"multi_trial",60,"42",0,50,"L",0
"43","1",180,"multi_trial",60,"43",1,50,"L",0
"44","1",45,"multi_trial",60,"44",0,50,"L",0
"45","1",93,"multi_trial",60,"45",0,50,"L",0
"46","1",158,"multi_trial",60,"46",0,50,"R",1
"47","1",140,"multi_trial",60,"47",0,50,"R",1
"48","1",85,"multi_trial",60,"48",0,50,"R",1
"49","1",150,"multi_trial",60,"49",0,50,"L",0
"50","1",331,"multi_trial",60,"50",0,50,"R",1
"51","2",1726,"multi_trial",80,"1",1,50,"R",1
"52","2",936,"multi_trial",80,"2",1,50,"R",1
"53","2",749,"multi_trial",80,"3",0,50,"L",0
"54","2",822,"multi_trial",80,"4",0,50,"L",0
"55","2",564,"multi_trial",80,"5",1,50,"R",1
"56","2",639,"multi_trial",80,"6",1,50,"R",1
"57","2",507,"multi_trial",80,"7",1,50,"R",1
"58","2",440,"multi_trial",80,"8",1,50,"R",1
"59","2",364,"multi_trial",80,"9",1,50,"R",1
"60","2",2000,"multi_trial",80,"10",-1,50,"timeout",0
"61","2",2000,"multi_trial",80,"11",-1,50,"timeout",0
"62","2",2000,"multi_trial",80,"12",-1,50,"timeout",0
"63","2",2000,"multi_trial",80,"13",-1,50,"timeout",0
"64","2",194,"multi_trial",80,"14",0,50,"L",0
"65","2",382,"multi_trial",80,"15",0,50,"R",1
"66","2",48,"multi_trial",80,"16",0,50,"L",0
"67","2",1953,"multi_trial",80,"17",1,50,"L",0
"68","2",781,"multi_trial",80,"18",0,50,"L",0
"69","2",1844,"multi_trial",80,"19",0,50,"L",0
"70","2",2000,"multi_trial",80,"20",-1,50,"timeout",0
"71","2",1671,"multi_trial",80,"21",0,50,"R",1
"72","2",1117,"multi_trial",80,"22",1,50,"R",1
"73","2",1097,"multi_trial",80,"23",1,50,"R",1
"74","2",1304,"multi_trial",80,"24",0,50,"R",1
"75","2",780,"multi_trial",80,"25",0,50,"L",0
"76","2",566,"multi_trial",80,"26",0,50,"L",0
"77","2",596,"multi_trial",80,"27",0,50,"L",0
"78","2",327,"multi_trial",80,"28",1,50,"R",1
"79","2",537,"multi_trial",80,"29",0,50,"R",1
"80","2",476,"multi_trial",80,"30",0,50,"L",0
"81","2",461,"multi_trial",80,"31",1,50,"R",1
"82","2",506,"multi_trial",80,"32",1,50,"R",1
"83","2",389,"multi_trial",80,"33",1,50,"R",1
"84","2",478,"multi_trial",80,"34",1,50,"R",1
"85","2",385,"multi_trial",80,"35",1,50,"R",1
"86","2",349,"multi_trial",80,"36",1,50,"R",1
"87","2",321,"multi_trial",80,"37",1,50,"R",1
"88","2",230,"multi_trial",80,"38",1,50,"R",1
"89","2",305,"multi_trial",80,"39",1,50,"R",1
"90","2",149,"multi_trial",80,"40",1,50,"R",1
"91","2",258,"multi_trial",80,"41",1,50,"R",1
"92","2",76,"multi_trial",80,"42",1,50,"R",1
"93","2",137,"multi_trial",80,"43",1,50,"R",1
"94","2",109,"multi_trial",80,"44",0,50,"R",1
"95","2",745,"multi_trial",80,"45",0,50,"R",1
"96","2",582,"multi_trial",80,"46",1,50,"L",0
"97","2",357,"multi_trial",80,"47",1,50,"R",1
"98","2",44,"multi_trial",80,"48",1,50,"R",1
"99","2",1239,"multi_trial",80,"49",1,50,"R",1
"100","2",68,"multi_trial",80,"50",1,50,"R",1
"101","3",2000,"multi_trial",80,"1",-1,100,"timeout",0
"102","3",714,"multi_trial",80,"2",0,100,"L",0
"103","3",456,"multi_trial",80,"3",1,100,"R",1
"104","3",437,"multi_trial",80,"4",0,100,"L",0
"105","3",224,"multi_trial",80,"5",1,100,"R",1
"106","3",1114,"multi_trial",80,"6",1,100,"R",1
"107","3",619,"multi_trial",80,"7",1,100,"R",1
"108","3",363,"multi_trial",80,"8",1,100,"R",1
"109","3",380,"multi_trial",80,"9",1,100,"R",1
"110","3",303,"multi_trial",80,"10",1,100,"R",1
"111","3",256,"multi_trial",80,"11",1,100,"R",1
"112","3",367,"multi_trial",80,"12",1,100,"R",1
"113","3",320,"multi_trial",80,"13",1,100,"R",1
"114","3",415,"multi_trial",80,"14",1,100,"R",1
"115","3",387,"multi_trial",80,"15",1,100,"R",1
"116","3",422,"multi_trial",80,"16",1,100,"R",1
"117","3",356,"multi_trial",80,"17",1,100,"R",1
"118","3",391,"multi_trial",80,"18",1,100,"R",1
"119","3",375,"multi_trial",80,"19",0,100,"R",1
"120","3",54,"multi_trial",80,"20",0,100,"L",0
"121","3",609,"multi_trial",80,"21",0,100,"R",1
"122","3",591,"multi_trial",80,"22",0,100,"R",1
"123","3",351,"multi_trial",80,"23",0,100,"L",0
"124","3",384,"multi_trial",80,"24",1,100,"L",0
"125","3",637,"multi_trial",80,"25",0,100,"R",1
"126","3",657,"multi_trial",80,"26",0,100,"L",0
"127","3",361,"multi_trial",80,"27",0,100,"L",0
"128","3",283,"multi_trial",80,"28",1,100,"R",1
"129","3",839,"multi_trial",80,"29",1,100,"L",0
"130","3",481,"multi_trial",80,"30",0,100,"L",0
"131","3",949,"multi_trial",80,"31",0,100,"L",0
"132","3",366,"multi_trial",80,"32",1,100,"R",1
"133","3",496,"multi_trial",80,"33",0,100,"L",0
"134","3",345,"multi_trial",80,"34",1,100,"R",1
"135","3",384,"multi_trial",80,"35",1,100,"R",1
"136","3",286,"multi_trial",80,"36",1,100,"R",1
"137","3",323,"multi_trial",80,"37",1,100,"R",1
"138","3",219,"multi_trial",80,"38",1,100,"R",1
"139","3",379,"multi_trial",80,"39",1,100,"R",1
"140","3",603,"multi_trial",80,"40",1,100,"R",1
"141","3",396,"multi_trial",80,"41",1,100,"R",1
"142","3",208,"multi_trial",80,"42",1,100,"R",1
"143","3",345,"multi_trial",80,"43",1,100,"R",1
"144","3",227,"multi_trial",80,"44",1,100,"R",1
"145","3",185,"multi_trial",80,"45",1,100,"R",1
"146","3",330,"multi_trial",80,"46",1,100,"R",1
"147","3",296,"multi_trial",80,"47",1,100,"R",1
"148","3",304,"multi_trial",80,"48",1,100,"R",1
"149","3",405,"multi_trial",80,"49",0,100,"R",1
"150","3",457,"multi_trial",80,"50",1,100,"R",1
"151","3",380,"multi_trial",80,"51",1,100,"R",1
"152","3",436,"multi_trial",80,"52",0,100,"L",0
"153","3",322,"multi_trial",80,"53",1,100,"R",1
"154","3",305,"multi_trial",80,"54",1,100,"R",1
"155","3",293,"multi_trial",80,"55",1,100,"R",1
"156","3",319,"multi_trial",80,"56",0,100,"R",1
"157","3",353,"multi_trial",80,"57",1,100,"R",1
"158","3",401,"multi_trial",80,"58",0,100,"R",1
"159","3",723,"multi_trial",80,"59",0,100,"L",0
"160","3",363,"multi_trial",80,"60",1,100,"R",1
"161","3",1303,"multi_trial",80,"61",0,100,"L",0
"162","3",222,"multi_trial",80,"62",1,100,"R",1
"163","3",234,"multi_trial",80,"63",1,100,"R",1
"164","3",193,"multi_trial",80,"64",1,100,"R",1
"165","3",363,"multi_trial",80,"65",1,100,"R",1
"166","3",219,"multi_trial",80,"66",1,100,"R",1
"167","3",320,"multi_trial",80,"67",0,100,"R",1
"168","3",977,"multi_trial",80,"68",0,100,"R",1
"169","3",348,"multi_trial",80,"69",1,100,"R",1
"170","3",322,"multi_trial",80,"70",1,100,"R",1
"171","3",392,"multi_trial",80,"71",1,100,"R",1
"172","3",383,"multi_trial",80,"72",1,100,"R",1
"173","3",378,"multi_trial",80,"73",0,100,"R",1
"174","3",741,"multi_trial",80,"74",0,100,"L",0
"175","3",384,"multi_trial",80,"75",1,100,"L",0
"176","3",334,"multi_trial",80,"76",0,100,"L",0
"177","3",0,"multi_trial",80,"77",0,100,"R",1
"178","3",118,"multi_trial",80,"78",1,100,"R",1
"179","3",384,"multi_trial",80,"79",0,100,"R",1
"180","3",439,"multi_trial",80,"80",1,100,"R",1
"181","3",415,"multi_trial",80,"81",0,100,"L",0
"182","3",429,"multi_trial",80,"82",1,100,"L",0
"183","3",376,"multi_trial",80,"83",1,100,"R",1
"184","3",195,"multi_trial",80,"84",1,100,"R",1
"185","3",220,"multi_trial",80,"85",1,100,"R",1
"186","3",161,"multi_trial",80,"86",1,100,"R",1
"187","3",150,"multi_trial",80,"87",1,100,"R",1
"188","3",39,"multi_trial",80,"88",1,100,"R",1
"189","3",116,"multi_trial",80,"89",0,100,"R",1
"190","3",426,"multi_trial",80,"90",1,100,"R",1
"191","3",363,"multi_trial",80,"91",1,100,"R",1
"192","3",418,"multi_trial",80,"92",0,100,"R",1
"193","3",1165,"multi_trial",80,"93",1,100,"R",1
"194","3",816,"multi_trial",80,"94",0,100,"R",1
"195","3",916,"multi_trial",80,"95",1,100,"R",1
"196","3",352,"multi_trial",80,"96",1,100,"R",1
"197","3",361,"multi_trial",80,"97",1,100,"R",1
"198","3",159,"multi_trial",80,"98",0,100,"R",1
"199","3",444,"multi_trial",80,"99",1,100,"R",1
"200","3",316,"multi_trial",80,"100",1,100,"R",1
"201","4",2289,"multi_trial",60,"1",1,100,"L",0
"202","4",1561,"multi_trial",60,"2",0,100,"L",0
"203","4",1254,"multi_trial",60,"3",1,100,"R",1
"204","4",966,"multi_trial",60,"4",1,100,"L",0
"205","4",1280,"multi_trial",60,"5",1,100,"L",0
"206","4",884,"multi_trial",60,"6",1,100,"R",1
"207","4",1022,"multi_trial",60,"7",0,100,"R",1
"208","4",1193,"multi_trial",60,"8",1,100,"R",1
"209","4",1229,"multi_trial",60,"9",0,100,"R",1
"210","4",989,"multi_trial",60,"10",1,100,"R",1
"211","4",920,"multi_trial",60,"11",0,100,"L",0
"212","4",942,"multi_trial",60,"12",1,100,"R",1
"213","4",686,"multi_trial",60,"13",1,100,"L",0
"214","4",747,"multi_trial",60,"14",1,100,"L",0
"215","4",692,"multi_trial",60,"15",1,100,"R",1
"216","4",1355,"multi_trial",60,"16",1,100,"L",0
"217","4",1064,"multi_trial",60,"17",1,100,"L",0
"218","4",664,"multi_trial",60,"18",0,100,"R",1
"219","4",1116,"multi_trial",60,"19",0,100,"R",1
"220","4",661,"multi_trial",60,"20",1,100,"R",1
"221","4",703,"multi_trial",60,"21",0,100,"L",0
"222","4",821,"multi_trial",60,"22",0,100,"L",0
"223","4",626,"multi_trial",60,"23",1,100,"L",0
"224","4",1112,"multi_trial",60,"24",0,100,"L",0
"225","4",676,"multi_trial",60,"25",0,100,"L",0
"226","4",968,"multi_trial",60,"26",1,100,"L",0
"227","4",735,"multi_trial",60,"27",0,100,"L",0
"228","4",673,"multi_trial",60,"28",1,100,"R",1
"229","4",717,"multi_trial",60,"29",0,100,"R",1
"230","4",729,"multi_trial",60,"30",1,100,"R",1
"231","4",603,"multi_trial",60,"31",0,100,"R",1
"232","4",741,"multi_trial",60,"32",0,100,"L",0
"233","4",682,"multi_trial",60,"33",1,100,"R",1
"234","4",855,"multi_trial",60,"34",1,100,"R",1
"235","4",848,"multi_trial",60,"35",1,100,"R",1
"236","4",621,"multi_trial",60,"36",1,100,"L",0
"237","4",634,"multi_trial",60,"37",0,100,"L",0
"238","4",647,"multi_trial",60,"38",0,100,"L",0
"239","4",684,"multi_trial",60,"39",1,100,"R",1
"240","4",648,"multi_trial",60,"40",0,100,"L",0
"241","4",534,"multi_trial",60,"41",0,100,"R",1
"242","4",733,"multi_trial",60,"42",1,100,"R",1
"243","4",572,"multi_trial",60,"43",1,100,"R",1
"244","4",522,"multi_trial",60,"44",0,100,"L",0
"245","4",676,"multi_trial",60,"45",0,100,"L",0
"246","4",527,"multi_trial",60,"46",1,100,"L",0
"247","4",597,"multi_trial",60,"47",1,100,"R",1
"248","4",643,"multi_trial",60,"48",1,100,"R",1
"249","4",707,"multi_trial",60,"49",1,100,"R",1
"250","4",546,"multi_trial",60,"50",0,100,"L",0
"251","4",688,"multi_trial",60,"51",0,100,"L",0
"252","4",662,"multi_trial",60,"52",1,100,"L",0
"253","4",823,"multi_trial",60,"53",1,100,"R",1
"254","4",856,"multi_trial",60,"54",1,100,"R",1
"255","4",718,"multi_trial",60,"55",1,100,"R",1
"256","4",761,"multi_trial",60,"56",0,100,"R",1
"257","4",710,"multi_trial",60,"57",0,100,"R",1
"258","4",690,"multi_trial",60,"58",0,100,"R",1
"259","4",783,"multi_trial",60,"59",0,100,"L",0
"260","4",717,"multi_trial",60,"60",1,100,"R",1
"261","4",599,"multi_trial",60,"61",0,100,"R",1
"262","4",774,"multi_trial",60,"62",1,100,"R",1
"263","4",514,"multi_trial",60,"63",0,100,"L",0
"264","4",523,"multi_trial",60,"64",1,100,"R",1
"265","4",503,"multi_trial",60,"65",0,100,"L",0
"266","4",587,"multi_trial",60,"66",1,100,"L",0
"267","4",598,"multi_trial",60,"67",0,100,"L",0
"268","4",794,"multi_trial",60,"68",0,100,"R",1
"269","4",782,"multi_trial",60,"69",1,100,"L",0
"270","4",647,"multi_trial",60,"70",0,100,"L",0
"271","4",771,"multi_trial",60,"71",1,100,"L",0
"272","4",552,"multi_trial",60,"72",0,100,"L",0
"273","4",689,"multi_trial",60,"73",1,100,"L",0
"274","4",599,"multi_trial",60,"74",0,100,"L",0
"275","4",632,"multi_trial",60,"75",0,100,"L",0
"276","4",859,"multi_trial",60,"76",1,100,"R",1
"277","4",492,"multi_trial",60,"77",1,100,"L",0
"278","4",640,"multi_trial",60,"78",1,100,"R",1
"279","4",877,"multi_trial",60,"79",1,100,"R",1
"280","4",525,"multi_trial",60,"80",1,100,"L",0
"281","4",930,"multi_trial",60,"81",1,100,"R",1
"282","4",831,"multi_trial",60,"82",0,100,"R",1
"283","4",932,"multi_trial",60,"83",0,100,"L",0
"284","4",769,"multi_trial",60,"84",1,100,"L",0
"285","4",528,"multi_trial",60,"85",1,100,"L",0
"286","4",438,"multi_trial",60,"86",1,100,"R",1
"287","4",578,"multi_trial",60,"87",0,100,"R",1
"288","4",667,"multi_trial",60,"88",1,100,"R",1
"289","4",380,"multi_trial",60,"89",0,100,"R",1
"290","4",603,"multi_trial",60,"90",0,100,"L",0
"291","4",650,"multi_trial",60,"91",0,100,"R",1
"292","4",439,"multi_trial",60,"92",0,100,"R",1
"293","4",583,"multi_trial",60,"93",1,100,"R",1
"294","4",461,"multi_trial",60,"94",0,100,"R",1
"295","4",581,"multi_trial",60,"95",1,100,"R",1
"296","4",438,"multi_trial",60,"96",1,100,"R",1
"297","4",900,"multi_trial",60,"97",1,100,"L",0
"298","4",777,"multi_trial",60,"98",1,100,"R",1
"299","4",867,"multi_trial",60,"99",1,100,"R",1
"300","4",553,"multi_trial",60,"100",1,100,"L",0
"301","5",1515,"multi_trial",80,"1",1,100,"R",1
"302","5",1058,"multi_trial",80,"2",1,100,"R",1
"303","5",724,"multi_trial",80,"3",0,100,"L",0
"304","5",782,"multi_trial",80,"4",0,100,"L",0
"305","5",600,"multi_trial",80,"5",1,100,"R",1
"306","5",685,"multi_trial",80,"6",1,100,"R",1
"307","5",597,"multi_trial",80,"7",1,100,"R",1
"308","5",565,"multi_trial",80,"8",1,100,"R",1
"309","5",662,"multi_trial",80,"9",0,100,"R",1
"310","5",662,"multi_trial",80,"10",1,100,"R",1
"311","5",678,"multi_trial",80,"11",1,100,"R",1
"312","5",582,"multi_trial",80,"12",1,100,"R",1
"313","5",582,"multi_trial",80,"13",0,100,"L",0
"314","5",726,"multi_trial",80,"14",0,100,"L",0
"315","5",652,"multi_trial",80,"15",0,100,"R",1
"316","5",559,"multi_trial",80,"16",0,100,"R",1
"317","5",630,"multi_trial",80,"17",0,100,"L",0
"318","5",598,"multi_trial",80,"18",1,100,"R",1
"319","5",726,"multi_trial",80,"19",0,100,"R",1
"320","5",694,"multi_trial",80,"20",1,100,"R",1
"321","5",771,"multi_trial",80,"21",1,100,"R",1
"322","5",566,"multi_trial",80,"22",1,100,"R",1
"323","5",598,"multi_trial",80,"23",0,100,"R",1
"324","5",566,"multi_trial",80,"24",1,100,"R",1
"325","5",810,"multi_trial",80,"25",0,100,"L",0
"326","5",491,"multi_trial",80,"26",1,100,"R",1
"327","5",2000,"multi_trial",80,"27",-1,100,"timeout",0
"328","5",587,"multi_trial",80,"28",1,100,"R",1
"329","5",1190,"multi_trial",80,"29",1,100,"R",1
"330","5",1843,"multi_trial",80,"30",0,100,"L",0
"331","5",2000,"multi_trial",80,"31",-1,100,"timeout",0
"332","5",200,"multi_trial",80,"32",1,100,"R",1
"333","5",341,"multi_trial",80,"33",1,100,"R",1
"334","5",677,"multi_trial",80,"34",0,100,"L",0
"335","5",1093,"multi_trial",80,"35",1,100,"R",1
"336","5",2000,"multi_trial",80,"36",-1,100,"timeout",0
"337","5",1236,"multi_trial",80,"37",1,100,"R",1
"338","5",737,"multi_trial",80,"38",0,100,"L",0
"339","5",582,"multi_trial",80,"39",0,100,"L",0
"340","5",611,"multi_trial",80,"40",1,100,"R",1
"341","5",580,"multi_trial",80,"41",1,100,"R",1
"342","5",869,"multi_trial",80,"42",1,100,"L",0
"343","5",656,"multi_trial",80,"43",1,100,"R",1
"344","5",742,"multi_trial",80,"44",0,100,"R",1
"345","5",630,"multi_trial",80,"45",1,100,"R",1
"346","5",726,"multi_trial",80,"46",1,100,"R",1
"347","5",662,"multi_trial",80,"47",1,100,"R",1
"348","5",662,"multi_trial",80,"48",0,100,"L",0
"349","5",630,"multi_trial",80,"49",0,100,"L",0
"350","5",677,"multi_trial",80,"50",0,100,"L",0
"351","5",581,"multi_trial",80,"51",0,100,"L",0
"352","5",688,"multi_trial",80,"52",0,100,"L",0
"353","5",660,"multi_trial",80,"53",0,100,"L",0
"354","5",534,"multi_trial",80,"54",0,100,"R",1
"355","5",615,"multi_trial",80,"55",1,100,"R",1
"356","5",550,"multi_trial",80,"56",1,100,"R",1
"357","5",583,"multi_trial",80,"57",1,100,"R",1
"358","5",550,"multi_trial",80,"58",0,100,"R",1
"359","5",580,"multi_trial",80,"59",0,100,"R",1
"360","5",532,"multi_trial",80,"60",0,100,"R",1
"361","5",581,"multi_trial",80,"61",0,100,"R",1
"362","5",534,"multi_trial",80,"62",0,100,"L",0
"363","5",542,"multi_trial",80,"63",1,100,"R",1
"364","5",486,"multi_trial",80,"64",1,100,"R",1
"365","5",565,"multi_trial",80,"65",1,100,"R",1
"366","5",533,"multi_trial",80,"66",1,100,"R",1
"367","5",499,"multi_trial",80,"67",1,100,"R",1
"368","5",539,"multi_trial",80,"68",0,100,"R",1
"369","5",467,"multi_trial",80,"69",1,100,"R",1
"370","5",517,"multi_trial",80,"70",1,100,"R",1
"371","5",454,"multi_trial",80,"71",0,100,"R",1
"372","5",486,"multi_trial",80,"72",1,100,"R",1
"373","5",533,"multi_trial",80,"73",1,100,"R",1
"374","5",585,"multi_trial",80,"74",0,100,"R",1
"375","5",463,"multi_trial",80,"75",1,100,"R",1
"376","5",502,"multi_trial",80,"76",1,100,"R",1
"377","5",503,"multi_trial",80,"77",1,100,"R",1
"378","5",486,"multi_trial",80,"78",1,100,"R",1
"379","5",502,"multi_trial",80,"79",1,100,"R",1
"380","5",523,"multi_trial",80,"80",1,100,"R",1
"381","5",518,"multi_trial",80,"81",1,100,"R",1
"382","5",550,"multi_trial",80,"82",1,100,"R",1
"383","5",518,"multi_trial",80,"83",1,100,"R",1
"384","5",518,"multi_trial",80,"84",1,100,"R",1
"385","5",630,"multi_trial",80,"85",0,100,"L",0
"386","5",546,"multi_trial",80,"86",0,100,"L",0
"387","5",518,"multi_trial",80,"87",0,100,"R",1
"388","5",535,"multi_trial",80,"88",0,100,"R",1
"389","5",599,"multi_trial",80,"89",0,100,"L",0
"390","5",532,"multi_trial",80,"90",1,100,"R",1
"391","5",494,"multi_trial",80,"91",1,100,"R",1
"392","5",484,"multi_trial",80,"92",1,100,"R",1
"393","5",613,"multi_trial",80,"93",1,100,"R",1
"394","5",405,"multi_trial",80,"94",0,100,"R",1
"395","5",610,"multi_trial",80,"95",0,100,"R",1
"396","5",884,"multi_trial",80,"96",0,100,"L",0
"397","5",494,"multi_trial",80,"97",1,100,"R",1
"398","5",517,"multi_trial",80,"98",1,100,"R",1
"399","5",486,"multi_trial",80,"99",1,100,"R",1
"400","5",549,"multi_trial",80,"100",0,100,"R",1
"401","6",2143,"multi_trial",80,"1",1,100,"R",1
"402","6",1359,"multi_trial",80,"2",0,100,"L",0
"403","6",640,"multi_trial",80,"3",1,100,"R",1
"404","6",1103,"multi_trial",80,"4",1,100,"L",0
"405","6",1334,"multi_trial",80,"5",0,100,"L",0
"406","6",391,"multi_trial",80,"6",0,100,"R",1
"407","6",599,"multi_trial",80,"7",0,100,"L",0
"408","6",1139,"multi_trial",80,"8",1,100,"R",1
"409","6",787,"multi_trial",80,"9",1,100,"L",0
"410","6",1310,"multi_trial",80,"10",0,100,"L",0
"411","6",728,"multi_trial",80,"11",1,100,"R",1
"412","6",1163,"multi_trial",80,"12",0,100,"L",0
"413","6",455,"multi_trial",80,"13",0,100,"R",1
"414","6",634,"multi_trial",80,"14",1,100,"L",0
"415","6",556,"multi_trial",80,"15",0,100,"L",0
"416","6",942,"multi_trial",80,"16",1,100,"R",1
"417","6",890,"multi_trial",80,"17",0,100,"L",0
"418","6",572,"multi_trial",80,"18",0,100,"L",0
"419","6",620,"multi_trial",80,"19",1,100,"R",1
"420","6",858,"multi_trial",80,"20",1,100,"R",1
"421","6",657,"multi_trial",80,"21",0,100,"L",0
"422","6",392,"multi_trial",80,"22",1,100,"R",1
"423","6",514,"multi_trial",80,"23",1,100,"R",1
"424","6",714,"multi_trial",80,"24",0,100,"R",1
"425","6",607,"multi_trial",80,"25",0,100,"L",0
"426","6",686,"multi_trial",80,"26",0,100,"R",1
"427","6",1439,"multi_trial",80,"27",0,100,"L",0
"428","6",370,"multi_trial",80,"28",1,100,"R",1
"429","6",626,"multi_trial",80,"29",1,100,"R",1
"430","6",469,"multi_trial",80,"30",1,100,"R",1
"431","6",734,"multi_trial",80,"31",1,100,"R",1
"432","6",796,"multi_trial",80,"32",1,100,"R",1
"433","6",515,"multi_trial",80,"33",1,100,"R",1
"434","6",451,"multi_trial",80,"34",1,100,"R",1
"435","6",406,"multi_trial",80,"35",0,100,"R",1
"436","6",850,"multi_trial",80,"36",1,100,"R",1
"437","6",425,"multi_trial",80,"37",0,100,"R",1
"438","6",719,"multi_trial",80,"38",1,100,"R",1
"439","6",861,"multi_trial",80,"39",1,100,"R",1
"440","6",878,"multi_trial",80,"40",0,100,"R",1
"441","6",921,"multi_trial",80,"41",1,100,"R",1
"442","6",550,"multi_trial",80,"42",0,100,"L",0
"443","6",28,"multi_trial",80,"43",0,100,"R",1
"444","6",812,"multi_trial",80,"44",0,100,"L",0
"445","6",91,"multi_trial",80,"45",1,100,"R",1
"446","6",481,"multi_trial",80,"46",1,100,"R",1
"447","6",1294,"multi_trial",80,"47",1,100,"R",1
"448","6",782,"multi_trial",80,"48",1,100,"R",1
"449","6",642,"multi_trial",80,"49",0,100,"L",0
"450","6",462,"multi_trial",80,"50",1,100,"R",1
"451","6",561,"multi_trial",80,"51",1,100,"R",1
"452","6",559,"multi_trial",80,"52",1,100,"R",1
"453","6",453,"multi_trial",80,"53",1,100,"R",1
"454","6",431,"multi_trial",80,"54",0,100,"L",0
"455","6",375,"multi_trial",80,"55",1,100,"R",1
"456","6",502,"multi_trial",80,"56",1,100,"R",1
"457","6",391,"multi_trial",80,"57",1,100,"R",1
"458","6",373,"multi_trial",80,"58",1,100,"R",1
"459","6",384,"multi_trial",80,"59",1,100,"R",1
"460","6",731,"multi_trial",80,"60",0,100,"R",1
"461","6",243,"multi_trial",80,"61",1,100,"R",1
"462","6",375,"multi_trial",80,"62",1,100,"R",1
"463","6",423,"multi_trial",80,"63",1,100,"R",1
"464","6",389,"multi_trial",80,"64",1,100,"R",1
"465","6",392,"multi_trial",80,"65",1,100,"R",1
"466","6",373,"multi_trial",80,"66",1,100,"R",1
"467","6",481,"multi_trial",80,"67",1,100,"R",1
"468","6",349,"multi_trial",80,"68",0,100,"R",1
"469","6",463,"multi_trial",80,"69",0,100,"R",1
"470","6",981,"multi_trial",80,"70",0,100,"L",0
"471","6",448,"multi_trial",80,"71",1,100,"R",1
"472","6",350,"multi_trial",80,"72",1,100,"R",1
"473","6",416,"multi_trial",80,"73",1,100,"R",1
"474","6",384,"multi_trial",80,"74",1,100,"R",1
"475","6",340,"multi_trial",80,"75",1,100,"R",1
"476","6",510,"multi_trial",80,"76",0,100,"L",0
"477","6",306,"multi_trial",80,"77",1,100,"R",1
"478","6",390,"multi_trial",80,"78",1,100,"R",1
"479","6",431,"multi_trial",80,"79",1,100,"R",1
"480","6",350,"multi_trial",80,"80",0,100,"L",0
"481","6",378,"multi_trial",80,"81",1,100,"R",1
"482","6",451,"multi_trial",80,"82",1,100,"R",1
"483","6",370,"multi_trial",80,"83",0,100,"R",1
"484","6",103,"multi_trial",80,"84",0,100,"L",0
"485","6",750,"multi_trial",80,"85",1,100,"R",1
"486","6",534,"multi_trial",80,"86",1,100,"R",1
"487","6",714,"multi_trial",80,"87",1,100,"R",1
"488","6",352,"multi_trial",80,"88",0,100,"R",1
"489","6",878,"multi_trial",80,"89",0,100,"L",0
"490","6",224,"multi_trial",80,"90",1,100,"R",1
"491","6",108,"multi_trial",80,"91",1,100,"R",1
"492","6",114,"multi_trial",80,"92",1,100,"R",1
"493","6",349,"multi_trial",80,"93",0,100,"R",1
"494","6",387,"multi_trial",80,"94",1,100,"R",1
"495","6",191,"multi_trial",80,"95",1,100,"R",1
"496","6",104,"multi_trial",80,"96",1,100,"R",1
"497","6",64,"multi_trial",80,"97",0,100,"R",1
"498","6",244,"multi_trial",80,"98",0,100,"R",1
"499","6",431,"multi_trial",80,"99",0,100,"L",0
"500","6",800,"multi_trial",80,"100",1,100,"L",0
"501","7",2776,"multi_trial",80,"1",0,50,"L",0
"502","7",768,"multi_trial",80,"2",1,50,"L",0
"503","7",884,"multi_trial",80,"3",1,50,"L",0
"504","7",1060,"multi_trial",80,"4",1,50,"R",1
"505","7",771,"multi_trial",80,"5",1,50,"R",1
"506","7",1141,"multi_trial",80,"6",1,50,"R",1
"507","7",678,"multi_trial",80,"7",0,50,"L",0
"508","7",566,"multi_trial",80,"8",0,50,"L",0
"509","7",659,"multi_trial",80,"9",1,50,"L",0
"510","7",711,"multi_trial",80,"10",0,50,"L",0
"511","7",900,"multi_trial",80,"11",1,50,"R",1
"512","7",821,"multi_trial",80,"12",0,50,"R",1
"513","7",534,"multi_trial",80,"13",1,50,"R",1
"514","7",641,"multi_trial",80,"14",0,50,"R",1
"515","7",708,"multi_trial",80,"15",0,50,"R",1
"516","7",772,"multi_trial",80,"16",0,50,"L",0
"517","7",627,"multi_trial",80,"17",0,50,"L",0
"518","7",646,"multi_trial",80,"18",0,50,"L",0
"519","7",661,"multi_trial",80,"19",0,50,"L",0
"520","7",375,"multi_trial",80,"20",0,50,"L",0
"521","7",419,"multi_trial",80,"21",0,50,"L",0
"522","7",501,"multi_trial",80,"22",0,50,"L",0
"523","7",437,"multi_trial",80,"23",1,50,"R",1
"524","7",420,"multi_trial",80,"24",1,50,"R",1
"525","7",421,"multi_trial",80,"25",0,50,"R",1
"526","7",594,"multi_trial",80,"26",0,50,"L",0
"527","7",697,"multi_trial",80,"27",1,50,"R",1
"528","7",500,"multi_trial",80,"28",1,50,"R",1
"529","7",627,"multi_trial",80,"29",1,50,"R",1
"530","7",534,"multi_trial",80,"30",1,50,"L",0
"531","7",741,"multi_trial",80,"31",0,50,"L",0
"532","7",660,"multi_trial",80,"32",1,50,"R",1
"533","7",481,"multi_trial",80,"33",1,50,"R",1
"534","7",500,"multi_trial",80,"34",0,50,"L",0
"535","7",563,"multi_trial",80,"35",0,50,"L",0
"536","7",484,"multi_trial",80,"36",1,50,"R",1
"537","7",421,"multi_trial",80,"37",1,50,"R",1
"538","7",405,"multi_trial",80,"38",1,50,"R",1
"539","7",485,"multi_trial",80,"39",1,50,"R",1
"540","7",472,"multi_trial",80,"40",1,50,"R",1
"541","7",470,"multi_trial",80,"41",1,50,"R",1
"542","7",503,"multi_trial",80,"42",1,50,"R",1
"543","7",389,"multi_trial",80,"43",1,50,"R",1
"544","7",550,"multi_trial",80,"44",1,50,"R",1
"545","7",424,"multi_trial",80,"45",1,50,"R",1
"546","7",469,"multi_trial",80,"46",0,50,"R",1
"547","7",789,"multi_trial",80,"47",0,50,"L",0
"548","7",470,"multi_trial",80,"48",1,50,"R",1
"549","7",374,"multi_trial",80,"49",0,50,"R",1
"550","7",528,"multi_trial",80,"50",1,50,"R",1
"551","8",1494,"multi_trial",80,"1",0,50,"L",0
"552","8",578,"multi_trial",80,"2",1,50,"R",1
"553","8",2000,"multi_trial",80,"3",-1,50,"timeout",0
"554","8",15,"multi_trial",80,"4",0,50,"R",1
"555","8",1687,"multi_trial",80,"5",0,50,"R",1
"556","8",189,"multi_trial",80,"6",1,50,"L",0
"557","8",1134,"multi_trial",80,"7",0,50,"L",0
"558","8",494,"multi_trial",80,"8",1,50,"R",1
"559","8",454,"multi_trial",80,"9",1,50,"R",1
"560","8",390,"multi_trial",80,"10",0,50,"L",0
"561","8",245,"multi_trial",80,"11",1,50,"R",1
"562","8",37,"multi_trial",80,"12",1,50,"R",1
"563","8",566,"multi_trial",80,"13",1,50,"R",1
"564","8",102,"multi_trial",80,"14",0,50,"R",1
"565","8",0,"multi_trial",80,"15",0,50,"L",0
"566","8",281,"multi_trial",80,"16",1,50,"R",1
"567","8",502,"multi_trial",80,"17",1,50,"R",1
"568","8",142,"multi_trial",80,"18",1,50,"R",1
"569","8",30,"multi_trial",80,"19",1,50,"R",1
"570","8",165,"multi_trial",80,"20",1,50,"R",1
"571","8",78,"multi_trial",80,"21",0,50,"R",1
"572","8",133,"multi_trial",80,"22",0,50,"L",0
"573","8",7,"multi_trial",80,"23",0,50,"R",1
"574","8",270,"multi_trial",80,"24",1,50,"R",1
"575","8",21,"multi_trial",80,"25",1,50,"R",1
"576","8",1,"multi_trial",80,"26",0,50,"R",1
"577","8",133,"multi_trial",80,"27",1,50,"R",1
"578","8",45,"multi_trial",80,"28",1,50,"R",1
"579","8",182,"multi_trial",80,"29",1,50,"R",1
"580","8",368,"multi_trial",80,"30",1,50,"R",1
"581","8",0,"multi_trial",80,"31",1,50,"R",1
"582","8",189,"multi_trial",80,"32",1,50,"R",1
"583","8",1,"multi_trial",80,"33",1,50,"R",1
"584","8",467,"multi_trial",80,"34",1,50,"R",1
"585","8",222,"multi_trial",80,"35",0,50,"R",1
"586","8",206,"multi_trial",80,"36",1,50,"R",1
"587","8",213,"multi_trial",80,"37",1,50,"R",1
"588","8",134,"multi_trial",80,"38",1,50,"R",1
"589","8",38,"multi_trial",80,"39",1,50,"R",1
"590","8",42,"multi_trial",80,"40",0,50,"R",1
"591","8",133,"multi_trial",80,"41",1,50,"R",1
"592","8",21,"multi_trial",80,"42",1,50,"R",1
"593","8",61,"multi_trial",80,"43",1,50,"R",1
"594","8",1693,"multi_trial",80,"44",1,50,"R",1
"595","8",189,"multi_trial",80,"45",1,50,"R",1
"596","8",142,"multi_trial",80,"46",1,50,"R",1
"597","8",7,"multi_trial",80,"47",1,50,"R",1
"598","8",68,"multi_trial",80,"48",1,50,"R",1
"599","8",238,"multi_trial",80,"49",0,50,"R",1
"600","8",39,"multi_trial",80,"50",1,50,"R",1
"601","9",1549,"multi_trial",80,"1",1,100,"R",1
"602","9",611,"multi_trial",80,"2",1,100,"R",1
"603","9",290,"multi_trial",80,"3",0,100,"L",0
"604","9",53,"multi_trial",80,"4",1,100,"R",1
"605","9",100,"multi_trial",80,"5",1,100,"R",1
"606","9",79,"multi_trial",80,"6",0,100,"R",1
"607","9",259,"multi_trial",80,"7",1,100,"R",1
"608","9",42,"multi_trial",80,"8",1,100,"R",1
"609","9",213,"multi_trial",80,"9",1,100,"R",1
"610","9",292,"multi_trial",80,"10",1,100,"R",1
"611","9",75,"multi_trial",80,"11",1,100,"R",1
"612","9",43,"multi_trial",80,"12",1,100,"R",1
"613","9",28,"multi_trial",80,"13",1,100,"R",1
"614","9",52,"multi_trial",80,"14",1,100,"R",1
"615","9",36,"multi_trial",80,"15",1,100,"R",1
"616","9",317,"multi_trial",80,"16",1,100,"R",1
"617","9",219,"multi_trial",80,"17",1,100,"R",1
"618","9",171,"multi_trial",80,"18",1,100,"R",1
"619","9",203,"multi_trial",80,"19",1,100,"R",1
"620","9",147,"multi_trial",80,"20",0,100,"R",1
"621","9",109,"multi_trial",80,"21",1,100,"R",1
"622","9",581,"multi_trial",80,"22",1,100,"R",1
"623","9",419,"multi_trial",80,"23",0,100,"R",1
"624","9",428,"multi_trial",80,"24",1,100,"R",1
"625","9",492,"multi_trial",80,"25",1,100,"R",1
"626","9",459,"multi_trial",80,"26",0,100,"R",1
"627","9",478,"multi_trial",80,"27",1,100,"R",1
"628","9",404,"multi_trial",80,"28",1,100,"R",1
"629","9",444,"multi_trial",80,"29",1,100,"R",1
"630","9",564,"multi_trial",80,"30",1,100,"R",1
"631","9",556,"multi_trial",80,"31",1,100,"R",1
"632","9",451,"multi_trial",80,"32",1,100,"R",1
"633","9",595,"multi_trial",80,"33",1,100,"R",1
"634","9",603,"multi_trial",80,"34",1,100,"R",1
"635","9",629,"multi_trial",80,"35",1,100,"R",1
"636","9",494,"multi_trial",80,"36",1,100,"R",1
"637","9",1005,"multi_trial",80,"37",1,100,"R",1
"638","9",532,"multi_trial",80,"38",0,100,"R",1
"639","9",366,"multi_trial",80,"39",1,100,"R",1
"640","9",205,"multi_trial",80,"40",1,100,"R",1
"641","9",188,"multi_trial",80,"41",0,100,"R",1
"642","9",123,"multi_trial",80,"42",1,100,"R",1
"643","9",285,"multi_trial",80,"43",1,100,"R",1
"644","9",312,"multi_trial",80,"44",0,100,"R",1
"645","9",152,"multi_trial",80,"45",1,100,"R",1
"646","9",253,"multi_trial",80,"46",1,100,"R",1
"647","9",307,"multi_trial",80,"47",1,100,"R",1
"648","9",343,"multi_trial",80,"48",1,100,"R",1
"649","9",444,"multi_trial",80,"49",1,100,"R",1
"650","9",268,"multi_trial",80,"50",1,100,"R",1
"651","9",357,"multi_trial",80,"51",0,100,"R",1
"652","9",301,"multi_trial",80,"52",1,100,"R",1
"653","9",333,"multi_trial",80,"53",1,100,"R",1
"654","9",356,"multi_trial",80,"54",1,100,"R",1
"655","9",506,"multi_trial",80,"55",1,100,"R",1
"656","9",252,"multi_trial",80,"56",0,100,"R",1
"657","9",378,"multi_trial",80,"57",1,100,"R",1
"658","9",403,"multi_trial",80,"58",1,100,"R",1
"659","9",412,"multi_trial",80,"59",1,100,"R",1
"660","9",444,"multi_trial",80,"60",1,100,"R",1
"661","9",356,"multi_trial",80,"61",1,100,"R",1
"662","9",397,"multi_trial",80,"62",0,100,"R",1
"663","9",235,"multi_trial",80,"63",1,100,"R",1
"664","9",196,"multi_trial",80,"64",0,100,"R",1
"665","9",174,"multi_trial",80,"65",0,100,"R",1
"666","9",134,"multi_trial",80,"66",1,100,"R",1
"667","9",60,"multi_trial",80,"67",1,100,"R",1
"668","9",12,"multi_trial",80,"68",0,100,"R",1
"669","9",37,"multi_trial",80,"69",0,100,"L",0
"670","9",157,"multi_trial",80,"70",0,100,"L",0
"671","9",36,"multi_trial",80,"71",1,100,"R",1
"672","9",166,"multi_trial",80,"72",0,100,"R",1
"673","9",43,"multi_trial",80,"73",1,100,"R",1
"674","9",54,"multi_trial",80,"74",1,100,"R",1
"675","9",91,"multi_trial",80,"75",1,100,"R",1
"676","9",207,"multi_trial",80,"76",1,100,"R",1
"677","9",125,"multi_trial",80,"77",0,100,"R",1
"678","9",155,"multi_trial",80,"78",1,100,"R",1
"679","9",76,"multi_trial",80,"79",1,100,"R",1
"680","9",133,"multi_trial",80,"80",1,100,"R",1
"681","9",133,"multi_trial",80,"81",1,100,"R",1
"682","9",123,"multi_trial",80,"82",1,100,"R",1
"683","9",84,"multi_trial",80,"83",1,100,"R",1
"684","9",118,"multi_trial",80,"84",1,100,"R",1
"685","9",155,"multi_trial",80,"85",1,100,"R",1
"686","9",109,"multi_trial",80,"86",0,100,"R",1
"687","9",108,"multi_trial",80,"87",1,100,"R",1
"688","9",90,"multi_trial",80,"88",1,100,"R",1
"689","9",70,"multi_trial",80,"89",0,100,"R",1
"690","9",356,"multi_trial",80,"90",0,100,"R",1
"691","9",23,"multi_trial",80,"91",1,100,"R",1
"692","9",2000,"multi_trial",80,"92",-1,100,"timeout",0
"693","9",651,"multi_trial",80,"93",1,100,"R",1
"694","9",59,"multi_trial",80,"94",1,100,"R",1
"695","9",230,"multi_trial",80,"95",1,100,"R",1
"696","9",11,"multi_trial",80,"96",1,100,"R",1
"697","9",129,"multi_trial",80,"97",1,100,"R",1
"698","9",118,"multi_trial",80,"98",1,100,"R",1
"699","9",29,"multi_trial",80,"99",0,100,"R",1
"700","9",1037,"multi_trial",80,"100",0,100,"R",1
"701","10",1358,"multi_trial",60,"1",0,50,"R",1
"702","10",1134,"multi_trial",60,"2",1,50,"R",1
"703","10",613,"multi_trial",60,"3",1,50,"L",0
"704","10",478,"multi_trial",60,"4",0,50,"L",0
"705","10",1214,"multi_trial",60,"5",0,50,"L",0
"706","10",606,"multi_trial",60,"6",0,50,"L",0
"707","10",303,"multi_trial",60,"7",1,50,"R",1
"708","10",847,"multi_trial",60,"8",1,50,"R",1
"709","10",447,"multi_trial",60,"9",1,50,"R",1
"710","10",431,"multi_trial",60,"10",1,50,"R",1
"711","10",326,"multi_trial",60,"11",1,50,"R",1
"712","10",430,"multi_trial",60,"12",1,50,"R",1
"713","10",423,"multi_trial",60,"13",1,50,"R",1
"714","10",399,"multi_trial",60,"14",1,50,"R",1
"715","10",398,"multi_trial",60,"15",0,50,"R",1
"716","10",406,"multi_trial",60,"16",0,50,"L",0
"717","10",399,"multi_trial",60,"17",1,50,"R",1
"718","10",247,"multi_trial",60,"18",1,50,"R",1
"719","10",391,"multi_trial",60,"19",0,50,"R",1
"720","10",486,"multi_trial",60,"20",0,50,"L",0
"721","10",406,"multi_trial",60,"21",1,50,"R",1
"722","10",334,"multi_trial",60,"22",1,50,"R",1
"723","10",401,"multi_trial",60,"23",1,50,"R",1
"724","10",203,"multi_trial",60,"24",1,50,"R",1
"725","10",366,"multi_trial",60,"25",1,50,"R",1
"726","10",390,"multi_trial",60,"26",0,50,"R",1
"727","10",374,"multi_trial",60,"27",0,50,"R",1
"728","10",382,"multi_trial",60,"28",1,50,"L",0
"729","10",367,"multi_trial",60,"29",1,50,"L",0
"730","10",277,"multi_trial",60,"30",0,50,"L",0
"731","10",382,"multi_trial",60,"31",0,50,"R",1
"732","10",375,"multi_trial",60,"32",0,50,"R",1
"733","10",229,"multi_trial",60,"33",1,50,"L",0
"734","10",383,"multi_trial",60,"34",0,50,"L",0
"735","10",398,"multi_trial",60,"35",0,50,"L",0
"736","10",182,"multi_trial",60,"36",1,50,"R",1
"737","10",254,"multi_trial",60,"37",1,50,"R",1
"738","10",270,"multi_trial",60,"38",0,50,"R",1
"739","10",254,"multi_trial",60,"39",1,50,"L",0
"740","10",286,"multi_trial",60,"40",0,50,"L",0
"741","10",303,"multi_trial",60,"41",1,50,"L",0
"742","10",367,"multi_trial",60,"42",0,50,"L",0
"743","10",439,"multi_trial",60,"43",0,50,"R",1
"744","10",287,"multi_trial",60,"44",1,50,"L",0
"745","10",166,"multi_trial",60,"45",0,50,"L",0
"746","10",366,"multi_trial",60,"46",1,50,"L",0
"747","10",286,"multi_trial",60,"47",1,50,"L",0
"748","10",246,"multi_trial",60,"48",1,50,"L",0
"749","10",366,"multi_trial",60,"49",1,50,"L",0
"750","10",342,"multi_trial",60,"50",0,50,"L",0
"751","11",1138,"multi_trial",60,"1",1,50,"L",0
"752","11",387,"multi_trial",60,"2",1,50,"L",0
"753","11",355,"multi_trial",60,"3",0,50,"L",0
"754","11",346,"multi_trial",60,"4",1,50,"L",0
"755","11",387,"multi_trial",60,"5",0,50,"L",0
"756","11",194,"multi_trial",60,"6",0,50,"L",0
"757","11",259,"multi_trial",60,"7",1,50,"L",0
"758","11",316,"multi_trial",60,"8",0,50,"L",0
"759","11",227,"multi_trial",60,"9",0,50,"L",0
"760","11",355,"multi_trial",60,"10",1,50,"L",0
"761","11",387,"multi_trial",60,"11",1,50,"L",0
"762","11",314,"multi_trial",60,"12",0,50,"L",0
"763","11",322,"multi_trial",60,"13",0,50,"L",0
"764","11",292,"multi_trial",60,"14",0,50,"L",0
"765","11",196,"multi_trial",60,"15",0,50,"L",0
"766","11",299,"multi_trial",60,"16",0,50,"R",1
"767","11",260,"multi_trial",60,"17",1,50,"R",1
"768","11",324,"multi_trial",60,"18",1,50,"R",1
"769","11",260,"multi_trial",60,"19",1,50,"R",1
"770","11",227,"multi_trial",60,"20",1,50,"R",1
"771","11",219,"multi_trial",60,"21",1,50,"R",1
"772","11",179,"multi_trial",60,"22",0,50,"R",1
"773","11",99,"multi_trial",60,"23",1,50,"R",1
"774","11",227,"multi_trial",60,"24",1,50,"R",1
"775","11",227,"multi_trial",60,"25",1,50,"R",1
"776","11",146,"multi_trial",60,"26",0,50,"R",1
"777","11",227,"multi_trial",60,"27",1,50,"R",1
"778","11",107,"multi_trial",60,"28",1,50,"R",1
"779","11",195,"multi_trial",60,"29",1,50,"R",1
"780","11",164,"multi_trial",60,"30",1,50,"L",0
"781","11",287,"multi_trial",60,"31",1,50,"R",1
"782","11",291,"multi_trial",60,"32",1,50,"R",1
"783","11",259,"multi_trial",60,"33",0,50,"R",1
"784","11",476,"multi_trial",60,"34",1,50,"R",1
"785","11",256,"multi_trial",60,"35",0,50,"R",1
"786","11",318,"multi_trial",60,"36",1,50,"L",0
"787","11",323,"multi_trial",60,"37",1,50,"R",1
"788","11",197,"multi_trial",60,"38",0,50,"L",0
"789","11",196,"multi_trial",60,"39",0,50,"R",1
"790","11",316,"multi_trial",60,"40",0,50,"R",1
"791","11",290,"multi_trial",60,"41",1,50,"L",0
"792","11",195,"multi_trial",60,"42",0,50,"L",0
"793","11",197,"multi_trial",60,"43",1,50,"L",0
"794","11",293,"multi_trial",60,"44",0,50,"R",1
"795","11",36,"multi_trial",60,"45",0,50,"R",1
"796","11",228,"multi_trial",60,"46",0,50,"L",0
"797","11",196,"multi_trial",60,"47",0,50,"L",0
"798","11",325,"multi_trial",60,"48",0,50,"L",0
"799","11",131,"multi_trial",60,"49",1,50,"R",1
"800","11",227,"multi_trial",60,"50",0,50,"R",1
"801","12",2748,"multi_trial",80,"1",1,50,"R",1
"802","12",1045,"multi_trial",80,"2",0,50,"L",0
"803","12",766,"multi_trial",80,"3",0,50,"L",0
"804","12",1090,"multi_trial",80,"4",0,50,"L",0
"805","12",818,"multi_trial",80,"5",1,50,"R",1
"806","12",607,"multi_trial",80,"6",0,50,"R",1
"807","12",943,"multi_trial",80,"7",1,50,"R",1
"808","12",908,"multi_trial",80,"8",0,50,"R",1
"809","12",932,"multi_trial",80,"9",1,50,"R",1
"810","12",707,"multi_trial",80,"10",0,50,"L",0
"811","12",678,"multi_trial",80,"11",0,50,"L",0
"812","12",796,"multi_trial",80,"12",0,50,"L",0
"813","12",544,"multi_trial",80,"13",0,50,"R",1
"814","12",778,"multi_trial",80,"14",1,50,"R",1
"815","12",1216,"multi_trial",80,"15",1,50,"R",1
"816","12",788,"multi_trial",80,"16",0,50,"L",0
"817","12",1025,"multi_trial",80,"17",1,50,"R",1
"818","12",871,"multi_trial",80,"18",1,50,"R",1
"819","12",455,"multi_trial",80,"19",0,50,"R",1
"820","12",402,"multi_trial",80,"20",0,50,"R",1
"821","12",527,"multi_trial",80,"21",1,50,"R",1
"822","12",518,"multi_trial",80,"22",0,50,"L",0
"823","12",496,"multi_trial",80,"23",0,50,"L",0
"824","12",594,"multi_trial",80,"24",0,50,"L",0
"825","12",454,"multi_trial",80,"25",1,50,"R",1
"826","12",458,"multi_trial",80,"26",1,50,"L",0
"827","12",828,"multi_trial",80,"27",0,50,"L",0
"828","12",408,"multi_trial",80,"28",1,50,"R",1
"829","12",346,"multi_trial",80,"29",0,50,"R",1
"830","12",260,"multi_trial",80,"30",1,50,"L",0
"831","12",279,"multi_trial",80,"31",0,50,"L",0
"832","12",270,"multi_trial",80,"32",1,50,"R",1
"833","12",433,"multi_trial",80,"33",1,50,"R",1
"834","12",682,"multi_trial",80,"34",0,50,"L",0
"835","12",381,"multi_trial",80,"35",1,50,"R",1
"836","12",426,"multi_trial",80,"36",1,50,"R",1
"837","12",477,"multi_trial",80,"37",1,50,"R",1
"838","12",532,"multi_trial",80,"38",1,50,"R",1
"839","12",508,"multi_trial",80,"39",0,50,"R",1
"840","12",558,"multi_trial",80,"40",1,50,"L",0
"841","12",1354,"multi_trial",80,"41",1,50,"R",1
"842","12",479,"multi_trial",80,"42",1,50,"R",1
"843","12",610,"multi_trial",80,"43",1,50,"R",1
"844","12",461,"multi_trial",80,"44",1,50,"R",1
"845","12",483,"multi_trial",80,"45",1,50,"R",1
"846","12",462,"multi_trial",80,"46",1,50,"R",1
"847","12",815,"multi_trial",80,"47",1,50,"R",1
"848","12",579,"multi_trial",80,"48",1,50,"R",1
"849","12",577,"multi_trial",80,"49",1,50,"R",1
"850","12",1332,"multi_trial",80,"50",1,50,"R",1
"851","13",1028,"multi_trial",80,"1",0,50,"L",0
"852","13",701,"multi_trial",80,"2",0,50,"L",0
"853","13",485,"multi_trial",80,"3",0,50,"L",0
"854","13",454,"multi_trial",80,"4",1,50,"R",1
"855","13",430,"multi_trial",80,"5",1,50,"R",1
"856","13",454,"multi_trial",80,"6",0,50,"L",0
"857","13",367,"multi_trial",80,"7",1,50,"R",1
"858","13",358,"multi_trial",80,"8",1,50,"R",1
"859","13",359,"multi_trial",80,"9",0,50,"R",1
"860","13",381,"multi_trial",80,"10",1,50,"R",1
"861","13",357,"multi_trial",80,"11",0,50,"R",1
"862","13",565,"multi_trial",80,"12",0,50,"L",0
"863","13",293,"multi_trial",80,"13",0,50,"L",0
"864","13",390,"multi_trial",80,"14",1,50,"L",0
"865","13",405,"multi_trial",80,"15",1,50,"L",0
"866","13",334,"multi_trial",80,"16",1,50,"R",1
"867","13",397,"multi_trial",80,"17",1,50,"R",1
"868","13",406,"multi_trial",80,"18",1,50,"R",1
"869","13",374,"multi_trial",80,"19",0,50,"L",0
"870","13",382,"multi_trial",80,"20",0,50,"L",0
"871","13",406,"multi_trial",80,"21",0,50,"L",0
"872","13",374,"multi_trial",80,"22",1,50,"R",1
"873","13",376,"multi_trial",80,"23",1,50,"R",1
"874","13",350,"multi_trial",80,"24",1,50,"R",1
"875","13",446,"multi_trial",80,"25",1,50,"R",1
"876","13",181,"multi_trial",80,"26",0,50,"L",0
"877","13",398,"multi_trial",80,"27",0,50,"L",0
"878","13",357,"multi_trial",80,"28",1,50,"R",1
"879","13",406,"multi_trial",80,"29",1,50,"R",1
"880","13",406,"multi_trial",80,"30",1,50,"R",1
"881","13",398,"multi_trial",80,"31",1,50,"R",1
"882","13",430,"multi_trial",80,"32",0,50,"R",1
"883","13",350,"multi_trial",80,"33",1,50,"R",1
"884","13",326,"multi_trial",80,"34",1,50,"R",1
"885","13",446,"multi_trial",80,"35",1,50,"R",1
"886","13",414,"multi_trial",80,"36",0,50,"R",1
"887","13",374,"multi_trial",80,"37",1,50,"R",1
"888","13",351,"multi_trial",80,"38",0,50,"R",1
"889","13",437,"multi_trial",80,"39",1,50,"R",1
"890","13",381,"multi_trial",80,"40",1,50,"R",1
"891","13",357,"multi_trial",80,"41",0,50,"R",1
"892","13",341,"multi_trial",80,"42",1,50,"R",1
"893","13",411,"multi_trial",80,"43",0,50,"R",1
"894","13",321,"multi_trial",80,"44",1,50,"R",1
"895","13",390,"multi_trial",80,"45",1,50,"R",1
"896","13",373,"multi_trial",80,"46",1,50,"R",1
"897","13",383,"multi_trial",80,"47",1,50,"R",1
"898","13",357,"multi_trial",80,"48",0,50,"R",1
"899","13",214,"multi_trial",80,"49",1,50,"R",1
"900","13",398,"multi_trial",80,"50",1,50,"R",1
"901","14",2730,"multi_trial",60,"1",0,100,"L",0
"902","14",2000,"multi_trial",60,"2",-1,100,"timeout",0
"903","14",2000,"multi_trial",60,"3",-1,100,"timeout",0
"904","14",205,"multi_trial",60,"4",1,100,"R",1
"905","14",480,"multi_trial",60,"5",1,100,"R",1
"906","14",461,"multi_trial",60,"6",0,100,"L",0
"907","14",408,"multi_trial",60,"7",1,100,"R",1
"908","14",267,"multi_trial",60,"8",1,100,"R",1
"909","14",242,"multi_trial",60,"9",0,100,"R",1
"910","14",474,"multi_trial",60,"10",1,100,"L",0
"911","14",269,"multi_trial",60,"11",0,100,"L",0
"912","14",462,"multi_trial",60,"12",1,100,"R",1
"913","14",170,"multi_trial",60,"13",1,100,"R",1
"914","14",58,"multi_trial",60,"14",0,100,"R",1
"915","14",483,"multi_trial",60,"15",0,100,"L",0
"916","14",861,"multi_trial",60,"16",0,100,"R",1
"917","14",458,"multi_trial",60,"17",0,100,"L",0
"918","14",338,"multi_trial",60,"18",0,100,"L",0
"919","14",237,"multi_trial",60,"19",0,100,"R",1
"920","14",230,"multi_trial",60,"20",0,100,"L",0
"921","14",139,"multi_trial",60,"21",1,100,"R",1
"922","14",11,"multi_trial",60,"22",1,100,"R",1
"923","14",235,"multi_trial",60,"23",0,100,"R",1
"924","14",658,"multi_trial",60,"24",0,100,"L",0
"925","14",837,"multi_trial",60,"25",1,100,"R",1
"926","14",290,"multi_trial",60,"26",1,100,"R",1
"927","14",345,"multi_trial",60,"27",1,100,"R",1
"928","14",442,"multi_trial",60,"28",1,100,"R",1
"929","14",311,"multi_trial",60,"29",1,100,"R",1
"930","14",398,"multi_trial",60,"30",1,100,"L",0
"931","14",380,"multi_trial",60,"31",0,100,"L",0
"932","14",456,"multi_trial",60,"32",1,100,"R",1
"933","14",285,"multi_trial",60,"33",0,100,"R",1
"934","14",372,"multi_trial",60,"34",1,100,"R",1
"935","14",268,"multi_trial",60,"35",1,100,"R",1
"936","14",152,"multi_trial",60,"36",0,100,"R",1
"937","14",547,"multi_trial",60,"37",0,100,"L",0
"938","14",115,"multi_trial",60,"38",0,100,"R",1
"939","14",357,"multi_trial",60,"39",0,100,"L",0
"940","14",182,"multi_trial",60,"40",1,100,"L",0
"941","14",260,"multi_trial",60,"41",0,100,"L",0
"942","14",135,"multi_trial",60,"42",0,100,"L",0
"943","14",18,"multi_trial",60,"43",0,100,"R",1
"944","14",250,"multi_trial",60,"44",0,100,"R",1
"945","14",97,"multi_trial",60,"45",1,100,"L",0
"946","14",30,"multi_trial",60,"46",1,100,"L",0
"947","14",14,"multi_trial",60,"47",1,100,"L",0
"948","14",28,"multi_trial",60,"48",1,100,"L",0
"949","14",175,"multi_trial",60,"49",0,100,"L",0
"950","14",26,"multi_trial",60,"50",0,100,"R",1
"951","14",27,"multi_trial",60,"51",0,100,"L",0
"952","14",1106,"multi_trial",60,"52",0,100,"R",1
"953","14",149,"multi_trial",60,"53",1,100,"R",1
"954","14",44,"multi_trial",60,"54",1,100,"R",1
"955","14",20,"multi_trial",60,"55",1,100,"R",1
"956","14",1132,"multi_trial",60,"56",0,100,"L",0
"957","14",11,"multi_trial",60,"57",1,100,"R",1
"958","14",1099,"multi_trial",60,"58",0,100,"R",1
"959","14",74,"multi_trial",60,"59",0,100,"L",0
"960","14",935,"multi_trial",60,"60",1,100,"R",1
"961","14",889,"multi_trial",60,"61",1,100,"R",1
"962","14",201,"multi_trial",60,"62",0,100,"R",1
"963","14",771,"multi_trial",60,"63",0,100,"R",1
"964","14",817,"multi_trial",60,"64",0,100,"L",0
"965","14",155,"multi_trial",60,"65",0,100,"R",1
"966","14",459,"multi_trial",60,"66",0,100,"R",1
"967","14",729,"multi_trial",60,"67",0,100,"L",0
"968","14",570,"multi_trial",60,"68",1,100,"L",0
"969","14",659,"multi_trial",60,"69",1,100,"L",0
"970","14",748,"multi_trial",60,"70",0,100,"L",0
"971","14",474,"multi_trial",60,"71",1,100,"R",1
"972","14",699,"multi_trial",60,"72",0,100,"R",1
"973","14",407,"multi_trial",60,"73",1,100,"R",1
"974","14",609,"multi_trial",60,"74",1,100,"R",1
"975","14",640,"multi_trial",60,"75",1,100,"R",1
"976","14",609,"multi_trial",60,"76",0,100,"R",1
"977","14",661,"multi_trial",60,"77",1,100,"L",0
"978","14",581,"multi_trial",60,"78",0,100,"R",1
"979","14",677,"multi_trial",60,"79",1,100,"L",0
"980","14",541,"multi_trial",60,"80",0,100,"R",1
"981","14",583,"multi_trial",60,"81",1,100,"L",0
"982","14",592,"multi_trial",60,"82",1,100,"R",1
"983","14",659,"multi_trial",60,"83",1,100,"R",1
"984","14",702,"multi_trial",60,"84",0,100,"R",1
"985","14",529,"multi_trial",60,"85",1,100,"L",0
"986","14",697,"multi_trial",60,"86",0,100,"L",0
"987","14",623,"multi_trial",60,"87",1,100,"R",1
"988","14",713,"multi_trial",60,"88",1,100,"R",1
"989","14",742,"multi_trial",60,"89",1,100,"R",1
"990","14",657,"multi_trial",60,"90",0,100,"R",1
"991","14",697,"multi_trial",60,"91",0,100,"L",0
"992","14",720,"multi_trial",60,"92",0,100,"L",0
"993","14",552,"multi_trial",60,"93",0,100,"R",1
"994","14",608,"multi_trial",60,"94",1,100,"L",0
"995","14",700,"multi_trial",60,"95",1,100,"L",0
"996","14",784,"multi_trial",60,"96",0,100,"L",0
"997","14",662,"multi_trial",60,"97",1,100,"R",1
"998","14",647,"multi_trial",60,"98",1,100,"R",1
"999","14",614,"multi_trial",60,"99",0,100,"R",1
"1000","14",524,"multi_trial",60,"100",1,100,"R",1
"1001","15",858,"multi_trial",60,"1",0,100,"L",0
"1002","15",580,"multi_trial",60,"2",0,100,"L",0
"1003","15",451,"multi_trial",60,"3",1,100,"R",1
"1004","15",465,"multi_trial",60,"4",0,100,"R",1
"1005","15",351,"multi_trial",60,"5",1,100,"L",0
"1006","15",414,"multi_trial",60,"6",1,100,"L",0
"1007","15",287,"multi_trial",60,"7",1,100,"L",0
"1008","15",376,"multi_trial",60,"8",0,100,"L",0
"1009","15",387,"multi_trial",60,"9",1,100,"R",1
"1010","15",421,"multi_trial",60,"10",0,100,"R",1
"1011","15",301,"multi_trial",60,"11",1,100,"L",0
"1012","15",398,"multi_trial",60,"12",0,100,"L",0
"1013","15",430,"multi_trial",60,"13",1,100,"R",1
"1014","15",398,"multi_trial",60,"14",0,100,"R",1
"1015","15",327,"multi_trial",60,"15",0,100,"L",0
"1016","15",382,"multi_trial",60,"16",0,100,"R",1
"1017","15",262,"multi_trial",60,"17",1,100,"L",0
"1018","15",246,"multi_trial",60,"18",0,100,"L",0
"1019","15",191,"multi_trial",60,"19",1,100,"R",1
"1020","15",299,"multi_trial",60,"20",1,100,"R",1
"1021","15",608,"multi_trial",60,"21",0,100,"R",1
"1022","15",174,"multi_trial",60,"22",0,100,"L",0
"1023","15",166,"multi_trial",60,"23",1,100,"R",1
"1024","15",694,"multi_trial",60,"24",0,100,"R",1
"1025","15",303,"multi_trial",60,"25",1,100,"L",0
"1026","15",222,"multi_trial",60,"26",1,100,"L",0
"1027","15",334,"multi_trial",60,"27",0,100,"L",0
"1028","15",309,"multi_trial",60,"28",1,100,"R",1
"1029","15",230,"multi_trial",60,"29",1,100,"R",1
"1030","15",430,"multi_trial",60,"30",0,100,"R",1
"1031","15",278,"multi_trial",60,"31",0,100,"L",0
"1032","15",214,"multi_trial",60,"32",1,100,"R",1
"1033","15",262,"multi_trial",60,"33",1,100,"R",1
"1034","15",245,"multi_trial",60,"34",0,100,"R",1
"1035","15",206,"multi_trial",60,"35",0,100,"L",0
"1036","15",85,"multi_trial",60,"36",1,100,"R",1
"1037","15",142,"multi_trial",60,"37",1,100,"R",1
"1038","15",158,"multi_trial",60,"38",0,100,"R",1
"1039","15",22,"multi_trial",60,"39",0,100,"L",0
"1040","15",222,"multi_trial",60,"40",1,100,"R",1
"1041","15",190,"multi_trial",60,"41",1,100,"R",1
"1042","15",143,"multi_trial",60,"42",1,100,"R",1
"1043","15",206,"multi_trial",60,"43",1,100,"R",1
"1044","15",270,"multi_trial",60,"44",1,100,"R",1
"1045","15",246,"multi_trial",60,"45",0,100,"R",1
"1046","15",158,"multi_trial",60,"46",0,100,"L",0
"1047","15",102,"multi_trial",60,"47",0,100,"R",1
"1048","15",174,"multi_trial",60,"48",0,100,"L",0
"1049","15",1190,"multi_trial",60,"49",0,100,"R",1
"1050","15",462,"multi_trial",60,"50",0,100,"R",1
"1051","15",301,"multi_trial",60,"51",1,100,"L",0
"1052","15",390,"multi_trial",60,"52",0,100,"L",0
"1053","15",358,"multi_trial",60,"53",0,100,"L",0
"1054","15",327,"multi_trial",60,"54",1,100,"R",1
"1055","15",262,"multi_trial",60,"55",0,100,"R",1
"1056","15",198,"multi_trial",60,"56",0,100,"L",0
"1057","15",151,"multi_trial",60,"57",1,100,"R",1
"1058","15",126,"multi_trial",60,"58",1,100,"R",1
"1059","15",175,"multi_trial",60,"59",0,100,"R",1
"1060","15",86,"multi_trial",60,"60",0,100,"L",0
"1061","15",6,"multi_trial",60,"61",1,100,"R",1
"1062","15",174,"multi_trial",60,"62",0,100,"L",0
"1063","15",213,"multi_trial",60,"63",1,100,"L",0
"1064","15",86,"multi_trial",60,"64",1,100,"L",0
"1065","15",357,"multi_trial",60,"65",0,100,"L",0
"1066","15",239,"multi_trial",60,"66",0,100,"R",1
"1067","15",326,"multi_trial",60,"67",1,100,"R",1
"1068","15",310,"multi_trial",60,"68",1,100,"R",1
"1069","15",302,"multi_trial",60,"69",1,100,"R",1
"1070","15",282,"multi_trial",60,"70",0,100,"R",1
"1071","15",338,"multi_trial",60,"71",0,100,"L",0
"1072","15",227,"multi_trial",60,"72",1,100,"R",1
"1073","15",281,"multi_trial",60,"73",1,100,"L",0
"1074","15",310,"multi_trial",60,"74",0,100,"L",0
"1075","15",213,"multi_trial",60,"75",1,100,"R",1
"1076","15",230,"multi_trial",60,"76",1,100,"R",1
"1077","15",254,"multi_trial",60,"77",0,100,"R",1
"1078","15",302,"multi_trial",60,"78",0,100,"L",0
"1079","15",93,"multi_trial",60,"79",0,100,"R",1
"1080","15",341,"multi_trial",60,"80",0,100,"L",0
"1081","15",150,"multi_trial",60,"81",1,100,"R",1
"1082","15",183,"multi_trial",60,"82",1,100,"R",1
"1083","15",102,"multi_trial",60,"83",1,100,"R",1
"1084","15",191,"multi_trial",60,"84",0,100,"R",1
"1085","15",87,"multi_trial",60,"85",1,100,"L",0
"1086","15",47,"multi_trial",60,"86",0,100,"L",0
"1087","15",30,"multi_trial",60,"87",0,100,"R",1
"1088","15",22,"multi_trial",60,"88",1,100,"L",0
"1089","15",38,"multi_trial",60,"89",0,100,"L",0
"1090","15",670,"multi_trial",60,"90",0,100,"R",1
"1091","15",109,"multi_trial",60,"91",1,100,"L",0
"1092","15",87,"multi_trial",60,"92",0,100,"L",0
"1093","15",102,"multi_trial",60,"93",0,100,"R",1
"1094","15",85,"multi_trial",60,"94",1,100,"L",0
"1095","15",22,"multi_trial",60,"95",0,100,"L",0
"1096","15",1710,"multi_trial",60,"96",0,100,"L",0
"1097","15",239,"multi_trial",60,"97",1,100,"L",0
"1098","15",239,"multi_trial",60,"98",0,100,"L",0
"1099","15",94,"multi_trial",60,"99",1,100,"R",1
"1100","15",30,"multi_trial",60,"100",0,100,"R",1
"1101","16",1612,"multi_trial",60,"1",0,100,"R",1
"1102","16",1065,"multi_trial",60,"2",0,100,"L",0
"1103","16",234,"multi_trial",60,"3",0,100,"L",0
"1104","16",74,"multi_trial",60,"4",0,100,"R",1
"1105","16",114,"multi_trial",60,"5",1,100,"L",0
"1106","16",427,"multi_trial",60,"6",1,100,"L",0
"1107","16",337,"multi_trial",60,"7",1,100,"L",0
"1108","16",404,"multi_trial",60,"8",1,100,"L",0
"1109","16",275,"multi_trial",60,"9",1,100,"L",0
"1110","16",342,"multi_trial",60,"10",1,100,"L",0
"1111","16",255,"multi_trial",60,"11",1,100,"L",0
"1112","16",308,"multi_trial",60,"12",0,100,"L",0
"1113","16",284,"multi_trial",60,"13",0,100,"L",0
"1114","16",379,"multi_trial",60,"14",1,100,"R",1
"1115","16",211,"multi_trial",60,"15",1,100,"R",1
"1116","16",187,"multi_trial",60,"16",1,100,"R",1
"1117","16",36,"multi_trial",60,"17",1,100,"R",1
"1118","16",320,"multi_trial",60,"18",1,100,"R",1
"1119","16",387,"multi_trial",60,"19",1,100,"R",1
"1120","16",139,"multi_trial",60,"20",0,100,"R",1
"1121","16",66,"multi_trial",60,"21",0,100,"L",0
"1122","16",381,"multi_trial",60,"22",0,100,"L",0
"1123","16",274,"multi_trial",60,"23",1,100,"R",1
"1124","16",363,"multi_trial",60,"24",1,100,"R",1
"1125","16",395,"multi_trial",60,"25",1,100,"R",1
"1126","16",460,"multi_trial",60,"26",0,100,"R",1
"1127","16",177,"multi_trial",60,"27",0,100,"L",0
"1128","16",235,"multi_trial",60,"28",1,100,"R",1
"1129","16",284,"multi_trial",60,"29",0,100,"R",1
"1130","16",443,"multi_trial",60,"30",0,100,"R",1
"1131","16",209,"multi_trial",60,"31",0,100,"L",0
"1132","16",149,"multi_trial",60,"32",1,100,"R",1
"1133","16",583,"multi_trial",60,"33",1,100,"R",1
"1134","16",123,"multi_trial",60,"34",1,100,"R",1
"1135","16",132,"multi_trial",60,"35",0,100,"R",1
"1136","16",127,"multi_trial",60,"36",0,100,"R",1
"1137","16",1,"multi_trial",60,"37",1,100,"R",1
"1138","16",63,"multi_trial",60,"38",1,100,"R",1
"1139","16",236,"multi_trial",60,"39",0,100,"R",1
"1140","16",179,"multi_trial",60,"40",0,100,"L",0
"1141","16",116,"multi_trial",60,"41",0,100,"L",0
"1142","16",180,"multi_trial",60,"42",1,100,"L",0
"1143","16",230,"multi_trial",60,"43",1,100,"L",0
"1144","16",208,"multi_trial",60,"44",0,100,"L",0
"1145","16",45,"multi_trial",60,"45",1,100,"R",1
"1146","16",444,"multi_trial",60,"46",1,100,"R",1
"1147","16",339,"multi_trial",60,"47",1,100,"R",1
"1148","16",389,"multi_trial",60,"48",0,100,"R",1
"1149","16",415,"multi_trial",60,"49",1,100,"R",1
"1150","16",219,"multi_trial",60,"50",0,100,"L",0
"1151","16",99,"multi_trial",60,"51",1,100,"R",1
"1152","16",251,"multi_trial",60,"52",1,100,"R",1
"1153","16",252,"multi_trial",60,"53",1,100,"R",1
"1154","16",308,"multi_trial",60,"54",1,100,"R",1
"1155","16",411,"multi_trial",60,"55",1,100,"R",1
"1156","16",211,"multi_trial",60,"56",1,100,"R",1
"1157","16",208,"multi_trial",60,"57",0,100,"R",1
"1158","16",136,"multi_trial",60,"58",0,100,"R",1
"1159","16",171,"multi_trial",60,"59",1,100,"L",0
"1160","16",251,"multi_trial",60,"60",0,100,"L",0
"1161","16",228,"multi_trial",60,"61",1,100,"R",1
"1162","16",164,"multi_trial",60,"62",1,100,"R",1
"1163","16",75,"multi_trial",60,"63",1,100,"R",1
"1164","16",2,"multi_trial",60,"64",0,100,"R",1
"1165","16",178,"multi_trial",60,"65",1,100,"L",0
"1166","16",181,"multi_trial",60,"66",1,100,"L",0
"1167","16",260,"multi_trial",60,"67",0,100,"L",0
"1168","16",188,"multi_trial",60,"68",1,100,"R",1
"1169","16",240,"multi_trial",60,"69",1,100,"R",1
"1170","16",247,"multi_trial",60,"70",1,100,"R",1
"1171","16",387,"multi_trial",60,"71",0,100,"R",1
"1172","16",348,"multi_trial",60,"72",1,100,"R",1
"1173","16",21,"multi_trial",60,"73",0,100,"R",1
"1174","16",403,"multi_trial",60,"74",1,100,"L",0
"1175","16",250,"multi_trial",60,"75",1,100,"L",0
"1176","16",396,"multi_trial",60,"76",0,100,"L",0
"1177","16",84,"multi_trial",60,"77",1,100,"R",1
"1178","16",180,"multi_trial",60,"78",1,100,"R",1
"1179","16",178,"multi_trial",60,"79",0,100,"R",1
"1180","16",246,"multi_trial",60,"80",1,100,"L",0
"1181","16",59,"multi_trial",60,"81",0,100,"L",0
"1182","16",100,"multi_trial",60,"82",1,100,"R",1
"1183","16",124,"multi_trial",60,"83",0,100,"R",1
"1184","16",302,"multi_trial",60,"84",1,100,"L",0
"1185","16",128,"multi_trial",60,"85",0,100,"L",0
"1186","16",293,"multi_trial",60,"86",1,100,"L",0
"1187","16",194,"multi_trial",60,"87",1,100,"L",0
"1188","16",267,"multi_trial",60,"88",0,100,"L",0
"1189","16",276,"multi_trial",60,"89",1,100,"R",1
"1190","16",116,"multi_trial",60,"90",1,100,"R",1
"1191","16",180,"multi_trial",60,"91",1,100,"R",1
"1192","16",129,"multi_trial",60,"92",1,100,"R",1
"1193","16",228,"multi_trial",60,"93",0,100,"R",1
"1194","16",141,"multi_trial",60,"94",0,100,"L",0
"1195","16",406,"multi_trial",60,"95",0,100,"R",1
"1196","16",107,"multi_trial",60,"96",0,100,"R",1
"1197","16",106,"multi_trial",60,"97",1,100,"R",1
"1198","16",451,"multi_trial",60,"98",1,100,"R",1
"1199","16",436,"multi_trial",60,"99",0,100,"R",1
"1200","16",474,"multi_trial",60,"100",1,100,"L",0
"1201","17",1756,"multi_trial",60,"1",0,100,"L",0
"1202","17",615,"multi_trial",60,"2",1,100,"R",1
"1203","17",521,"multi_trial",60,"3",1,100,"R",1
"1204","17",467,"multi_trial",60,"4",0,100,"L",0
"1205","17",341,"multi_trial",60,"5",1,100,"R",1
"1206","17",576,"multi_trial",60,"6",1,100,"R",1
"1207","17",389,"multi_trial",60,"7",1,100,"R",1
"1208","17",441,"multi_trial",60,"8",1,100,"R",1
"1209","17",326,"multi_trial",60,"9",0,100,"R",1
"1210","17",521,"multi_trial",60,"10",1,100,"R",1
"1211","17",446,"multi_trial",60,"11",0,100,"R",1
"1212","17",420,"multi_trial",60,"12",0,100,"R",1
"1213","17",367,"multi_trial",60,"13",1,100,"R",1
"1214","17",525,"multi_trial",60,"14",1,100,"R",1
"1215","17",397,"multi_trial",60,"15",1,100,"R",1
"1216","17",385,"multi_trial",60,"16",0,100,"R",1
"1217","17",370,"multi_trial",60,"17",1,100,"L",0
"1218","17",367,"multi_trial",60,"18",0,100,"L",0
"1219","17",285,"multi_trial",60,"19",0,100,"L",0
"1220","17",356,"multi_trial",60,"20",1,100,"R",1
"1221","17",396,"multi_trial",60,"21",0,100,"R",1
"1222","17",332,"multi_trial",60,"22",1,100,"R",1
"1223","17",336,"multi_trial",60,"23",1,100,"R",1
"1224","17",346,"multi_trial",60,"24",1,100,"R",1
"1225","17",341,"multi_trial",60,"25",0,100,"R",1
"1226","17",392,"multi_trial",60,"26",1,100,"R",1
"1227","17",355,"multi_trial",60,"27",0,100,"R",1
"1228","17",545,"multi_trial",60,"28",1,100,"R",1
"1229","17",400,"multi_trial",60,"29",0,100,"R",1
"1230","17",325,"multi_trial",60,"30",0,100,"R",1
"1231","17",61,"multi_trial",60,"31",0,100,"R",1
"1232","17",125,"multi_trial",60,"32",1,100,"R",1
"1233","17",95,"multi_trial",60,"33",1,100,"R",1
"1234","17",46,"multi_trial",60,"34",1,100,"R",1
"1235","17",181,"multi_trial",60,"35",1,100,"R",1
"1236","17",165,"multi_trial",60,"36",1,100,"R",1
"1237","17",181,"multi_trial",60,"37",0,100,"R",1
"1238","17",106,"multi_trial",60,"38",1,100,"R",1
"1239","17",176,"multi_trial",60,"39",0,100,"R",1
"1240","17",732,"multi_trial",60,"40",0,100,"L",0
"1241","17",189,"multi_trial",60,"41",0,100,"L",0
"1242","17",240,"multi_trial",60,"42",1,100,"L",0
"1243","17",140,"multi_trial",60,"43",1,100,"L",0
"1244","17",179,"multi_trial",60,"44",0,100,"L",0
"1245","17",11,"multi_trial",60,"45",1,100,"R",1
"1246","17",66,"multi_trial",60,"46",0,100,"R",1
"1247","17",857,"multi_trial",60,"47",0,100,"R",1
"1248","17",481,"multi_trial",60,"48",1,100,"R",1
"1249","17",225,"multi_trial",60,"49",1,100,"R",1
"1250","17",501,"multi_trial",60,"50",1,100,"R",1
"1251","17",467,"multi_trial",60,"51",1,100,"R",1
"1252","17",356,"multi_trial",60,"52",0,100,"R",1
"1253","17",499,"multi_trial",60,"53",1,100,"R",1
"1254","17",244,"multi_trial",60,"54",1,100,"L",0
"1255","17",706,"multi_trial",60,"55",1,100,"L",0
"1256","17",535,"multi_trial",60,"56",1,100,"R",1
"1257","17",592,"multi_trial",60,"57",0,100,"R",1
"1258","17",412,"multi_trial",60,"58",0,100,"R",1
"1259","17",436,"multi_trial",60,"59",1,100,"R",1
"1260","17",522,"multi_trial",60,"60",0,100,"R",1
"1261","17",552,"multi_trial",60,"61",1,100,"R",1
"1262","17",561,"multi_trial",60,"62",0,100,"L",0
"1263","17",401,"multi_trial",60,"63",1,100,"R",1
"1264","17",561,"multi_trial",60,"64",1,100,"R",1
"1265","17",450,"multi_trial",60,"65",1,100,"R",1
"1266","17",537,"multi_trial",60,"66",1,100,"L",0
"1267","17",662,"multi_trial",60,"67",0,100,"L",0
"1268","17",346,"multi_trial",60,"68",1,100,"R",1
"1269","17",603,"multi_trial",60,"69",1,100,"R",1
"1270","17",472,"multi_trial",60,"70",1,100,"R",1
"1271","17",647,"multi_trial",60,"71",1,100,"L",0
"1272","17",461,"multi_trial",60,"72",0,100,"R",1
"1273","17",415,"multi_trial",60,"73",1,100,"R",1
"1274","17",511,"multi_trial",60,"74",0,100,"R",1
"1275","17",432,"multi_trial",60,"75",0,100,"R",1
"1276","17",401,"multi_trial",60,"76",1,100,"R",1
"1277","17",467,"multi_trial",60,"77",0,100,"R",1
"1278","17",411,"multi_trial",60,"78",1,100,"R",1
"1279","17",482,"multi_trial",60,"79",0,100,"R",1
"1280","17",386,"multi_trial",60,"80",1,100,"R",1
"1281","17",502,"multi_trial",60,"81",1,100,"L",0
"1282","17",492,"multi_trial",60,"82",1,100,"R",1
"1283","17",592,"multi_trial",60,"83",1,100,"L",0
"1284","17",385,"multi_trial",60,"84",1,100,"R",1
"1285","17",461,"multi_trial",60,"85",0,100,"L",0
"1286","17",476,"multi_trial",60,"86",1,100,"L",0
"1287","17",452,"multi_trial",60,"87",1,100,"L",0
"1288","17",411,"multi_trial",60,"88",1,100,"R",1
"1289","17",652,"multi_trial",60,"89",0,100,"R",1
"1290","17",472,"multi_trial",60,"90",1,100,"L",0
"1291","17",646,"multi_trial",60,"91",0,100,"R",1
"1292","17",461,"multi_trial",60,"92",1,100,"R",1
"1293","17",632,"multi_trial",60,"93",1,100,"R",1
"1294","17",596,"multi_trial",60,"94",0,100,"L",0
"1295","17",421,"multi_trial",60,"95",0,100,"R",1
"1296","17",506,"multi_trial",60,"96",0,100,"L",0
"1297","17",427,"multi_trial",60,"97",1,100,"L",0
"1298","17",506,"multi_trial",60,"98",1,100,"L",0
"1299","17",372,"multi_trial",60,"99",1,100,"R",1
"1300","17",536,"multi_trial",60,"100",1,100,"R",1
"1301","18",2252,"multi_trial",80,"1",1,100,"R",1
"1302","18",136,"multi_trial",80,"2",1,100,"R",1
"1303","18",1164,"multi_trial",80,"3",1,100,"R",1
"1304","18",821,"multi_trial",80,"4",1,100,"R",1
"1305","18",461,"multi_trial",80,"5",0,100,"L",0
"1306","18",627,"multi_trial",80,"6",1,100,"R",1
"1307","18",279,"multi_trial",80,"7",0,100,"L",0
"1308","18",660,"multi_trial",80,"8",0,100,"R",1
"1309","18",925,"multi_trial",80,"9",0,100,"R",1
"1310","18",823,"multi_trial",80,"10",0,100,"R",1
"1311","18",780,"multi_trial",80,"11",0,100,"L",0
"1312","18",668,"multi_trial",80,"12",1,100,"R",1
"1313","18",588,"multi_trial",80,"13",1,100,"R",1
"1314","18",712,"multi_trial",80,"14",0,100,"R",1
"1315","18",1295,"multi_trial",80,"15",1,100,"R",1
"1316","18",795,"multi_trial",80,"16",1,100,"R",1
"1317","18",862,"multi_trial",80,"17",1,100,"R",1
"1318","18",873,"multi_trial",80,"18",0,100,"L",0
"1319","18",757,"multi_trial",80,"19",1,100,"R",1
"1320","18",560,"multi_trial",80,"20",1,100,"R",1
"1321","18",568,"multi_trial",80,"21",1,100,"R",1
"1322","18",698,"multi_trial",80,"22",1,100,"R",1
"1323","18",543,"multi_trial",80,"23",0,100,"R",1
"1324","18",1744,"multi_trial",80,"24",0,100,"L",0
"1325","18",641,"multi_trial",80,"25",1,100,"R",1
"1326","18",529,"multi_trial",80,"26",0,100,"R",1
"1327","18",1000,"multi_trial",80,"27",1,100,"R",1
"1328","18",618,"multi_trial",80,"28",1,100,"R",1
"1329","18",430,"multi_trial",80,"29",1,100,"R",1
"1330","18",376,"multi_trial",80,"30",1,100,"R",1
"1331","18",385,"multi_trial",80,"31",1,100,"R",1
"1332","18",387,"multi_trial",80,"32",1,100,"R",1
"1333","18",442,"multi_trial",80,"33",1,100,"R",1
"1334","18",528,"multi_trial",80,"34",1,100,"R",1
"1335","18",594,"multi_trial",80,"35",1,100,"R",1
"1336","18",559,"multi_trial",80,"36",0,100,"L",0
"1337","18",483,"multi_trial",80,"37",0,100,"L",0
"1338","18",689,"multi_trial",80,"38",0,100,"L",0
"1339","18",586,"multi_trial",80,"39",1,100,"R",1
"1340","18",531,"multi_trial",80,"40",1,100,"R",1
"1341","18",468,"multi_trial",80,"41",1,100,"R",1
"1342","18",399,"multi_trial",80,"42",1,100,"R",1
"1343","18",395,"multi_trial",80,"43",1,100,"R",1
"1344","18",394,"multi_trial",80,"44",1,100,"R",1
"1345","18",403,"multi_trial",80,"45",1,100,"R",1
"1346","18",381,"multi_trial",80,"46",1,100,"R",1
"1347","18",513,"multi_trial",80,"47",0,100,"R",1
"1348","18",493,"multi_trial",80,"48",0,100,"R",1
"1349","18",486,"multi_trial",80,"49",0,100,"L",0
"1350","18",539,"multi_trial",80,"50",1,100,"R",1
"1351","18",470,"multi_trial",80,"51",1,100,"R",1
"1352","18",416,"multi_trial",80,"52",0,100,"R",1
"1353","18",536,"multi_trial",80,"53",1,100,"R",1
"1354","18",778,"multi_trial",80,"54",1,100,"R",1
"1355","18",500,"multi_trial",80,"55",1,100,"R",1
"1356","18",461,"multi_trial",80,"56",1,100,"R",1
"1357","18",462,"multi_trial",80,"57",0,100,"R",1
"1358","18",441,"multi_trial",80,"58",1,100,"R",1
"1359","18",503,"multi_trial",80,"59",1,100,"R",1
"1360","18",445,"multi_trial",80,"60",1,100,"R",1
"1361","18",410,"multi_trial",80,"61",1,100,"R",1
"1362","18",419,"multi_trial",80,"62",1,100,"R",1
"1363","18",403,"multi_trial",80,"63",0,100,"R",1
"1364","18",478,"multi_trial",80,"64",1,100,"R",1
"1365","18",454,"multi_trial",80,"65",1,100,"R",1
"1366","18",473,"multi_trial",80,"66",0,100,"R",1
"1367","18",503,"multi_trial",80,"67",1,100,"R",1
"1368","18",645,"multi_trial",80,"68",1,100,"R",1
"1369","18",494,"multi_trial",80,"69",1,100,"R",1
"1370","18",996,"multi_trial",80,"70",1,100,"R",1
"1371","18",523,"multi_trial",80,"71",1,100,"R",1
"1372","18",655,"multi_trial",80,"72",0,100,"R",1
"1373","18",1168,"multi_trial",80,"73",1,100,"R",1
"1374","18",365,"multi_trial",80,"74",0,100,"R",1
"1375","18",537,"multi_trial",80,"75",0,100,"R",1
"1376","18",463,"multi_trial",80,"76",0,100,"R",1
"1377","18",419,"multi_trial",80,"77",1,100,"R",1
"1378","18",542,"multi_trial",80,"78",0,100,"L",0
"1379","18",478,"multi_trial",80,"79",1,100,"R",1
"1380","18",485,"multi_trial",80,"80",0,100,"L",0
"1381","18",462,"multi_trial",80,"81",1,100,"R",1
"1382","18",462,"multi_trial",80,"82",1,100,"R",1
"1383","18",469,"multi_trial",80,"83",1,100,"R",1
"1384","18",459,"multi_trial",80,"84",1,100,"R",1
"1385","18",399,"multi_trial",80,"85",1,100,"R",1
"1386","18",469,"multi_trial",80,"86",1,100,"R",1
"1387","18",501,"multi_trial",80,"87",0,100,"L",0
"1388","18",423,"multi_trial",80,"88",1,100,"R",1
"1389","18",480,"multi_trial",80,"89",0,100,"R",1
"1390","18",450,"multi_trial",80,"90",1,100,"R",1
"1391","18",384,"multi_trial",80,"91",1,100,"R",1
"1392","18",384,"multi_trial",80,"92",0,100,"R",1
"1393","18",487,"multi_trial",80,"93",0,100,"R",1
"1394","18",374,"multi_trial",80,"94",1,100,"R",1
"1395","18",427,"multi_trial",80,"95",1,100,"R",1
"1396","18",478,"multi_trial",80,"96",0,100,"L",0
"1397","18",469,"multi_trial",80,"97",1,100,"R",1
"1398","18",508,"multi_trial",80,"98",1,100,"L",0
"1399","18",792,"multi_trial",80,"99",0,100,"L",0
"1400","18",507,"multi_trial",80,"100",1,100,"R",1
"1401","19",904,"multi_trial",80,"1",1,100,"R",1
"1402","19",712,"multi_trial",80,"2",1,100,"R",1
"1403","19",570,"multi_trial",80,"3",1,100,"R",1
"1404","19",475,"multi_trial",80,"4",1,100,"R",1
"1405","19",413,"multi_trial",80,"5",1,100,"R",1
"1406","19",637,"multi_trial",80,"6",0,100,"R",1
"1407","19",443,"multi_trial",80,"7",0,100,"L",0
"1408","19",465,"multi_trial",80,"8",0,100,"L",0
"1409","19",380,"multi_trial",80,"9",1,100,"R",1
"1410","19",384,"multi_trial",80,"10",0,100,"R",1
"1411","19",335,"multi_trial",80,"11",1,100,"R",1
"1412","19",384,"multi_trial",80,"12",1,100,"R",1
"1413","19",392,"multi_trial",80,"13",1,100,"R",1
"1414","19",382,"multi_trial",80,"14",1,100,"R",1
"1415","19",335,"multi_trial",80,"15",1,100,"R",1
"1416","19",382,"multi_trial",80,"16",0,100,"R",1
"1417","19",377,"multi_trial",80,"17",1,100,"R",1
"1418","19",377,"multi_trial",80,"18",1,100,"L",0
"1419","19",334,"multi_trial",80,"19",0,100,"L",0
"1420","19",333,"multi_trial",80,"20",1,100,"R",1
"1421","19",224,"multi_trial",80,"21",1,100,"R",1
"1422","19",348,"multi_trial",80,"22",1,100,"R",1
"1423","19",339,"multi_trial",80,"23",1,100,"R",1
"1424","19",330,"multi_trial",80,"24",1,100,"R",1
"1425","19",360,"multi_trial",80,"25",0,100,"R",1
"1426","19",347,"multi_trial",80,"26",0,100,"L",0
"1427","19",357,"multi_trial",80,"27",0,100,"R",1
"1428","19",403,"multi_trial",80,"28",1,100,"R",1
"1429","19",360,"multi_trial",80,"29",1,100,"R",1
"1430","19",353,"multi_trial",80,"30",1,100,"R",1
"1431","19",352,"multi_trial",80,"31",1,100,"R",1
"1432","19",415,"multi_trial",80,"32",1,100,"R",1
"1433","19",435,"multi_trial",80,"33",1,100,"R",1
"1434","19",349,"multi_trial",80,"34",0,100,"R",1
"1435","19",402,"multi_trial",80,"35",1,100,"R",1
"1436","19",335,"multi_trial",80,"36",0,100,"L",0
"1437","19",490,"multi_trial",80,"37",1,100,"R",1
"1438","19",330,"multi_trial",80,"38",0,100,"R",1
"1439","19",353,"multi_trial",80,"39",1,100,"R",1
"1440","19",337,"multi_trial",80,"40",1,100,"R",1
"1441","19",362,"multi_trial",80,"41",1,100,"R",1
"1442","19",360,"multi_trial",80,"42",1,100,"R",1
"1443","19",276,"multi_trial",80,"43",1,100,"R",1
"1444","19",285,"multi_trial",80,"44",0,100,"R",1
"1445","19",379,"multi_trial",80,"45",0,100,"L",0
"1446","19",357,"multi_trial",80,"46",1,100,"R",1
"1447","19",216,"multi_trial",80,"47",1,100,"R",1
"1448","19",344,"multi_trial",80,"48",1,100,"R",1
"1449","19",277,"multi_trial",80,"49",1,100,"R",1
"1450","19",318,"multi_trial",80,"50",1,100,"R",1
"1451","19",271,"multi_trial",80,"51",1,100,"R",1
"1452","19",290,"multi_trial",80,"52",1,100,"R",1
"1453","19",102,"multi_trial",80,"53",0,100,"R",1
"1454","19",309,"multi_trial",80,"54",1,100,"R",1
"1455","19",292,"multi_trial",80,"55",0,100,"R",1
"1456","19",307,"multi_trial",80,"56",1,100,"R",1
"1457","19",335,"multi_trial",80,"57",1,100,"R",1
"1458","19",350,"multi_trial",80,"58",1,100,"R",1
"1459","19",349,"multi_trial",80,"59",1,100,"R",1
"1460","19",373,"multi_trial",80,"60",1,100,"R",1
"1461","19",303,"multi_trial",80,"61",1,100,"R",1
"1462","19",289,"multi_trial",80,"62",1,100,"R",1
"1463","19",206,"multi_trial",80,"63",1,100,"R",1
"1464","19",201,"multi_trial",80,"64",0,100,"R",1
"1465","19",346,"multi_trial",80,"65",0,100,"L",0
"1466","19",211,"multi_trial",80,"66",1,100,"R",1
"1467","19",161,"multi_trial",80,"67",1,100,"R",1
"1468","19",270,"multi_trial",80,"68",1,100,"R",1
"1469","19",329,"multi_trial",80,"69",1,100,"R",1
"1470","19",285,"multi_trial",80,"70",1,100,"R",1
"1471","19",259,"multi_trial",80,"71",1,100,"R",1
"1472","19",288,"multi_trial",80,"72",1,100,"R",1
"1473","19",117,"multi_trial",80,"73",1,100,"R",1
"1474","19",142,"multi_trial",80,"74",1,100,"R",1
"1475","19",134,"multi_trial",80,"75",0,100,"R",1
"1476","19",55,"multi_trial",80,"76",1,100,"R",1
"1477","19",189,"multi_trial",80,"77",1,100,"R",1
"1478","19",587,"multi_trial",80,"78",0,100,"R",1
"1479","19",205,"multi_trial",80,"79",1,100,"R",1
"1480","19",244,"multi_trial",80,"80",1,100,"R",1
"1481","19",144,"multi_trial",80,"81",1,100,"R",1
"1482","19",164,"multi_trial",80,"82",1,100,"R",1
"1483","19",172,"multi_trial",80,"83",0,100,"R",1
"1484","19",26,"multi_trial",80,"84",1,100,"R",1
"1485","19",233,"multi_trial",80,"85",1,100,"R",1
"1486","19",192,"multi_trial",80,"86",1,100,"R",1
"1487","19",100,"multi_trial",80,"87",1,100,"R",1
"1488","19",48,"multi_trial",80,"88",1,100,"R",1
"1489","19",145,"multi_trial",80,"89",1,100,"R",1
"1490","19",55,"multi_trial",80,"90",0,100,"R",1
"1491","19",6,"multi_trial",80,"91",0,100,"R",1
"1492","19",259,"multi_trial",80,"92",1,100,"R",1
"1493","19",143,"multi_trial",80,"93",0,100,"R",1
"1494","19",339,"multi_trial",80,"94",1,100,"R",1
"1495","19",369,"multi_trial",80,"95",0,100,"R",1
"1496","19",370,"multi_trial",80,"96",1,100,"R",1
"1497","19",356,"multi_trial",80,"97",0,100,"L",0
"1498","19",347,"multi_trial",80,"98",0,100,"L",0
"1499","19",377,"multi_trial",80,"99",1,100,"R",1
"1500","19",339,"multi_trial",80,"100",0,100,"R",1
"1501","20",2089,"multi_trial",80,"1",1,50,"R",1
"1502","20",635,"multi_trial",80,"2",1,50,"R",1
"1503","20",679,"multi_trial",80,"3",1,50,"R",1
"1504","20",554,"multi_trial",80,"4",1,50,"R",1
"1505","20",607,"multi_trial",80,"5",1,50,"R",1
"1506","20",517,"multi_trial",80,"6",1,50,"R",1
"1507","20",541,"multi_trial",80,"7",1,50,"R",1
"1508","20",419,"multi_trial",80,"8",1,50,"R",1
"1509","20",470,"multi_trial",80,"9",1,50,"R",1
"1510","20",481,"multi_trial",80,"10",1,50,"R",1
"1511","20",414,"multi_trial",80,"11",1,50,"R",1
"1512","20",432,"multi_trial",80,"12",1,50,"R",1
"1513","20",411,"multi_trial",80,"13",0,50,"R",1
"1514","20",587,"multi_trial",80,"14",0,50,"L",0
"1515","20",480,"multi_trial",80,"15",1,50,"R",1
"1516","20",528,"multi_trial",80,"16",1,50,"R",1
"1517","20",496,"multi_trial",80,"17",0,50,"R",1
"1518","20",881,"multi_trial",80,"18",1,50,"R",1
"1519","20",1766,"multi_trial",80,"19",1,50,"R",1
"1520","20",444,"multi_trial",80,"20",0,50,"R",1
"1521","20",551,"multi_trial",80,"21",1,50,"R",1
"1522","20",544,"multi_trial",80,"22",1,50,"R",1
"1523","20",574,"multi_trial",80,"23",0,50,"R",1
"1524","20",437,"multi_trial",80,"24",0,50,"R",1
"1525","20",1089,"multi_trial",80,"25",0,50,"L",0
"1526","20",449,"multi_trial",80,"26",1,50,"R",1
"1527","20",487,"multi_trial",80,"27",1,50,"R",1
"1528","20",416,"multi_trial",80,"28",1,50,"R",1
"1529","20",371,"multi_trial",80,"29",1,50,"R",1
"1530","20",425,"multi_trial",80,"30",1,50,"R",1
"1531","20",454,"multi_trial",80,"31",1,50,"R",1
"1532","20",443,"multi_trial",80,"32",1,50,"R",1
"1533","20",423,"multi_trial",80,"33",1,50,"R",1
"1534","20",438,"multi_trial",80,"34",1,50,"R",1
"1535","20",580,"multi_trial",80,"35",1,50,"R",1
"1536","20",494,"multi_trial",80,"36",1,50,"R",1
"1537","20",429,"multi_trial",80,"37",0,50,"R",1
"1538","20",452,"multi_trial",80,"38",0,50,"R",1
"1539","20",514,"multi_trial",80,"39",1,50,"R",1
"1540","20",468,"multi_trial",80,"40",0,50,"R",1
"1541","20",611,"multi_trial",80,"41",1,50,"R",1
"1542","20",491,"multi_trial",80,"42",0,50,"L",0
"1543","20",429,"multi_trial",80,"43",1,50,"R",1
"1544","20",472,"multi_trial",80,"44",1,50,"R",1
"1545","20",529,"multi_trial",80,"45",0,50,"R",1
"1546","20",1112,"multi_trial",80,"46",1,50,"R",1
"1547","20",426,"multi_trial",80,"47",1,50,"R",1
"1548","20",425,"multi_trial",80,"48",0,50,"R",1
"1549","20",412,"multi_trial",80,"49",1,50,"R",1
"1550","20",496,"multi_trial",80,"50",1,50,"R",1
"1551","21",1343,"multi_trial",60,"1",0,100,"L",0
"1552","21",590,"multi_trial",60,"2",0,100,"L",0
"1553","21",429,"multi_trial",60,"3",0,100,"R",1
"1554","21",524,"multi_trial",60,"4",1,100,"R",1
"1555","21",520,"multi_trial",60,"5",1,100,"R",1
"1556","21",405,"multi_trial",60,"6",1,100,"L",0
"1557","21",121,"multi_trial",60,"7",1,100,"L",0
"1558","21",623,"multi_trial",60,"8",0,100,"R",1
"1559","21",324,"multi_trial",60,"9",0,100,"L",0
"1560","21",344,"multi_trial",60,"10",1,100,"L",0
"1561","21",543,"multi_trial",60,"11",1,100,"R",1
"1562","21",526,"multi_trial",60,"12",1,100,"R",1
"1563","21",854,"multi_trial",60,"13",0,100,"L",0
"1564","21",540,"multi_trial",60,"14",1,100,"R",1
"1565","21",486,"multi_trial",60,"15",1,100,"R",1
"1566","21",716,"multi_trial",60,"16",1,100,"R",1
"1567","21",616,"multi_trial",60,"17",1,100,"R",1
"1568","21",632,"multi_trial",60,"18",1,100,"R",1
"1569","21",561,"multi_trial",60,"19",1,100,"R",1
"1570","21",512,"multi_trial",60,"20",1,100,"R",1
"1571","21",356,"multi_trial",60,"21",1,100,"R",1
"1572","21",396,"multi_trial",60,"22",1,100,"R",1
"1573","21",385,"multi_trial",60,"23",1,100,"R",1
"1574","21",494,"multi_trial",60,"24",1,100,"R",1
"1575","21",373,"multi_trial",60,"25",1,100,"R",1
"1576","21",478,"multi_trial",60,"26",0,100,"R",1
"1577","21",285,"multi_trial",60,"27",1,100,"L",0
"1578","21",192,"multi_trial",60,"28",0,100,"L",0
"1579","21",449,"multi_trial",60,"29",0,100,"R",1
"1580","21",752,"multi_trial",60,"30",0,100,"R",1
"1581","21",349,"multi_trial",60,"31",0,100,"L",0
"1582","21",490,"multi_trial",60,"32",0,100,"L",0
"1583","21",355,"multi_trial",60,"33",1,100,"R",1
"1584","21",535,"multi_trial",60,"34",1,100,"R",1
"1585","21",1312,"multi_trial",60,"35",0,100,"R",1
"1586","21",561,"multi_trial",60,"36",0,100,"L",0
"1587","21",635,"multi_trial",60,"37",0,100,"R",1
"1588","21",550,"multi_trial",60,"38",0,100,"R",1
"1589","21",360,"multi_trial",60,"39",0,100,"L",0
"1590","21",122,"multi_trial",60,"40",1,100,"L",0
"1591","21",318,"multi_trial",60,"41",1,100,"L",0
"1592","21",408,"multi_trial",60,"42",0,100,"L",0
"1593","21",557,"multi_trial",60,"43",0,100,"R",1
"1594","21",218,"multi_trial",60,"44",0,100,"L",0
"1595","21",852,"multi_trial",60,"45",0,100,"R",1
"1596","21",198,"multi_trial",60,"46",1,100,"L",0
"1597","21",74,"multi_trial",60,"47",0,100,"L",0
"1598","21",4,"multi_trial",60,"48",1,100,"R",1
"1599","21",719,"multi_trial",60,"49",1,100,"R",1
"1600","21",369,"multi_trial",60,"50",0,100,"R",1
"1601","21",319,"multi_trial",60,"51",0,100,"L",0
"1602","21",591,"multi_trial",60,"52",0,100,"L",0
"1603","21",615,"multi_trial",60,"53",1,100,"R",1
"1604","21",534,"multi_trial",60,"54",1,100,"R",1
"1605","21",677,"multi_trial",60,"55",0,100,"R",1
"1606","21",285,"multi_trial",60,"56",0,100,"L",0
"1607","21",436,"multi_trial",60,"57",0,100,"R",1
"1608","21",361,"multi_trial",60,"58",0,100,"L",0
"1609","21",578,"multi_trial",60,"59",1,100,"R",1
"1610","21",368,"multi_trial",60,"60",0,100,"R",1
"1611","21",317,"multi_trial",60,"61",1,100,"L",0
"1612","21",519,"multi_trial",60,"62",1,100,"R",1
"1613","21",522,"multi_trial",60,"63",0,100,"R",1
"1614","21",52,"multi_trial",60,"64",1,100,"L",0
"1615","21",757,"multi_trial",60,"65",1,100,"L",0
"1616","21",1748,"multi_trial",60,"66",1,100,"L",0
"1617","21",501,"multi_trial",60,"67",1,100,"L",0
"1618","21",685,"multi_trial",60,"68",1,100,"L",0
"1619","21",492,"multi_trial",60,"69",0,100,"L",0
"1620","21",372,"multi_trial",60,"70",0,100,"R",1
"1621","21",341,"multi_trial",60,"71",0,100,"L",0
"1622","21",428,"multi_trial",60,"72",1,100,"R",1
"1623","21",611,"multi_trial",60,"73",1,100,"R",1
"1624","21",652,"multi_trial",60,"74",1,100,"R",1
"1625","21",466,"multi_trial",60,"75",0,100,"R",1
"1626","21",391,"multi_trial",60,"76",0,100,"L",0
"1627","21",464,"multi_trial",60,"77",1,100,"R",1
"1628","21",706,"multi_trial",60,"78",1,100,"R",1
"1629","21",592,"multi_trial",60,"79",1,100,"R",1
"1630","21",499,"multi_trial",60,"80",1,100,"R",1
"1631","21",475,"multi_trial",60,"81",1,100,"R",1
"1632","21",426,"multi_trial",60,"82",1,100,"R",1
"1633","21",389,"multi_trial",60,"83",0,100,"R",1
"1634","21",183,"multi_trial",60,"84",1,100,"L",0
"1635","21",295,"multi_trial",60,"85",1,100,"L",0
"1636","21",319,"multi_trial",60,"86",0,100,"L",0
"1637","21",133,"multi_trial",60,"87",0,100,"R",1
"1638","21",203,"multi_trial",60,"88",0,100,"L",0
"1639","21",667,"multi_trial",60,"89",1,100,"L",0
"1640","21",173,"multi_trial",60,"90",0,100,"L",0
"1641","21",439,"multi_trial",60,"91",1,100,"L",0
"1642","21",343,"multi_trial",60,"92",1,100,"R",1
"1643","21",348,"multi_trial",60,"93",0,100,"L",0
"1644","21",238,"multi_trial",60,"94",0,100,"R",1
"1645","21",207,"multi_trial",60,"95",0,100,"L",0
"1646","21",461,"multi_trial",60,"96",0,100,"R",1
"1647","21",520,"multi_trial",60,"97",1,100,"R",1
"1648","21",213,"multi_trial",60,"98",1,100,"L",0
"1649","21",404,"multi_trial",60,"99",0,100,"R",1
"1650","21",167,"multi_trial",60,"100",0,100,"L",0
"1651","22",633,"multi_trial",80,"1",0,50,"L",0
"1652","22",576,"multi_trial",80,"2",1,50,"R",1
"1653","22",404,"multi_trial",80,"3",1,50,"R",1
"1654","22",313,"multi_trial",80,"4",1,50,"R",1
"1655","22",269,"multi_trial",80,"5",0,50,"R",1
"1656","22",264,"multi_trial",80,"6",0,50,"L",0
"1657","22",252,"multi_trial",80,"7",0,50,"L",0
"1658","22",173,"multi_trial",80,"8",1,50,"R",1
"1659","22",96,"multi_trial",80,"9",0,50,"R",1
"1660","22",164,"multi_trial",80,"10",1,50,"R",1
"1661","22",162,"multi_trial",80,"11",1,50,"R",1
"1662","22",106,"multi_trial",80,"12",0,50,"R",1
"1663","22",138,"multi_trial",80,"13",0,50,"L",0
"1664","22",56,"multi_trial",80,"14",1,50,"R",1
"1665","22",57,"multi_trial",80,"15",1,50,"R",1
"1666","22",86,"multi_trial",80,"16",1,50,"R",1
"1667","22",81,"multi_trial",80,"17",1,50,"R",1
"1668","22",1,"multi_trial",80,"18",0,50,"R",1
"1669","22",64,"multi_trial",80,"19",0,50,"R",1
"1670","22",7,"multi_trial",80,"20",1,50,"R",1
"1671","22",21,"multi_trial",80,"21",1,50,"R",1
"1672","22",919,"multi_trial",80,"22",1,50,"R",1
"1673","22",740,"multi_trial",80,"23",1,50,"R",1
"1674","22",594,"multi_trial",80,"24",1,50,"R",1
"1675","22",588,"multi_trial",80,"25",0,50,"R",1
"1676","22",499,"multi_trial",80,"26",0,50,"R",1
"1677","22",480,"multi_trial",80,"27",0,50,"R",1
"1678","22",477,"multi_trial",80,"28",0,50,"R",1
"1679","22",535,"multi_trial",80,"29",0,50,"L",0
"1680","22",476,"multi_trial",80,"30",1,50,"R",1
"1681","22",431,"multi_trial",80,"31",0,50,"R",1
"1682","22",382,"multi_trial",80,"32",1,50,"R",1
"1683","22",440,"multi_trial",80,"33",1,50,"R",1
"1684","22",382,"multi_trial",80,"34",1,50,"R",1
"1685","22",437,"multi_trial",80,"35",1,50,"R",1
"1686","22",418,"multi_trial",80,"36",1,50,"R",1
"1687","22",420,"multi_trial",80,"37",1,50,"R",1
"1688","22",411,"multi_trial",80,"38",1,50,"R",1
"1689","22",377,"multi_trial",80,"39",1,50,"R",1
"1690","22",404,"multi_trial",80,"40",1,50,"R",1
"1691","22",286,"multi_trial",80,"41",1,50,"R",1
"1692","22",341,"multi_trial",80,"42",1,50,"R",1
"1693","22",291,"multi_trial",80,"43",1,50,"R",1
"1694","22",286,"multi_trial",80,"44",1,50,"R",1
"1695","22",66,"multi_trial",80,"45",1,50,"R",1
"1696","22",225,"multi_trial",80,"46",1,50,"R",1
"1697","22",303,"multi_trial",80,"47",1,50,"R",1
"1698","22",384,"multi_trial",80,"48",1,50,"R",1
"1699","22",384,"multi_trial",80,"49",1,50,"R",1
"1700","22",286,"multi_trial",80,"50",1,50,"R",1
"1701","23",1999,"multi_trial",60,"1",1,50,"R",1
"1702","23",966,"multi_trial",60,"2",1,50,"R",1
"1703","23",878,"multi_trial",60,"3",0,50,"R",1
"1704","23",743,"multi_trial",60,"4",1,50,"R",1
"1705","23",769,"multi_trial",60,"5",1,50,"R",1
"1706","23",843,"multi_trial",60,"6",1,50,"R",1
"1707","23",677,"multi_trial",60,"7",1,50,"R",1
"1708","23",780,"multi_trial",60,"8",1,50,"R",1
"1709","23",682,"multi_trial",60,"9",0,50,"R",1
"1710","23",714,"multi_trial",60,"10",0,50,"R",1
"1711","23",656,"multi_trial",60,"11",1,50,"L",0
"1712","23",589,"multi_trial",60,"12",1,50,"R",1
"1713","23",629,"multi_trial",60,"13",0,50,"R",1
"1714","23",524,"multi_trial",60,"14",0,50,"R",1
"1715","23",941,"multi_trial",60,"15",0,50,"L",0
"1716","23",530,"multi_trial",60,"16",1,50,"L",0
"1717","23",743,"multi_trial",60,"17",0,50,"R",1
"1718","23",713,"multi_trial",60,"18",0,50,"R",1
"1719","23",959,"multi_trial",60,"19",0,50,"R",1
"1720","23",748,"multi_trial",60,"20",0,50,"R",1
"1721","23",698,"multi_trial",60,"21",1,50,"R",1
"1722","23",699,"multi_trial",60,"22",1,50,"R",1
"1723","23",708,"multi_trial",60,"23",1,50,"R",1
"1724","23",750,"multi_trial",60,"24",1,50,"R",1
"1725","23",693,"multi_trial",60,"25",0,50,"R",1
"1726","23",471,"multi_trial",60,"26",0,50,"L",0
"1727","23",407,"multi_trial",60,"27",1,50,"L",0
"1728","23",450,"multi_trial",60,"28",0,50,"L",0
"1729","23",401,"multi_trial",60,"29",0,50,"L",0
"1730","23",352,"multi_trial",60,"30",0,50,"L",0
"1731","23",321,"multi_trial",60,"31",0,50,"L",0
"1732","23",312,"multi_trial",60,"32",0,50,"L",0
"1733","23",272,"multi_trial",60,"33",0,50,"L",0
"1734","23",439,"multi_trial",60,"34",1,50,"L",0
"1735","23",490,"multi_trial",60,"35",1,50,"L",0
"1736","23",498,"multi_trial",60,"36",1,50,"L",0
"1737","23",556,"multi_trial",60,"37",1,50,"L",0
"1738","23",637,"multi_trial",60,"38",0,50,"L",0
"1739","23",460,"multi_trial",60,"39",1,50,"L",0
"1740","23",906,"multi_trial",60,"40",1,50,"R",1
"1741","23",511,"multi_trial",60,"41",1,50,"R",1
"1742","23",568,"multi_trial",60,"42",1,50,"R",1
"1743","23",603,"multi_trial",60,"43",0,50,"R",1
"1744","23",341,"multi_trial",60,"44",1,50,"R",1
"1745","23",714,"multi_trial",60,"45",1,50,"R",1
"1746","23",706,"multi_trial",60,"46",1,50,"R",1
"1747","23",636,"multi_trial",60,"47",1,50,"R",1
"1748","23",706,"multi_trial",60,"48",1,50,"R",1
"1749","23",710,"multi_trial",60,"49",1,50,"R",1
"1750","23",743,"multi_trial",60,"50",0,50,"R",1
"1751","24",4900,"multi_trial",80,"1",0,50,"L",0
"1752","24",919,"multi_trial",80,"2",0,50,"L",0
"1753","24",189,"multi_trial",80,"3",1,50,"R",1
"1754","24",829,"multi_trial",80,"4",1,50,"R",1
"1755","24",125,"multi_trial",80,"5",1,50,"R",1
"1756","24",157,"multi_trial",80,"6",1,50,"R",1
"1757","24",53,"multi_trial",80,"7",1,50,"R",1
"1758","24",309,"multi_trial",80,"8",0,50,"R",1
"1759","24",212,"multi_trial",80,"9",0,50,"L",0
"1760","24",13,"multi_trial",80,"10",1,50,"R",1
"1761","24",21,"multi_trial",80,"11",1,50,"R",1
"1762","24",230,"multi_trial",80,"12",0,50,"R",1
"1763","24",172,"multi_trial",80,"13",0,50,"L",0
"1764","24",30,"multi_trial",80,"14",0,50,"L",0
"1765","24",45,"multi_trial",80,"15",1,50,"R",1
"1766","24",150,"multi_trial",80,"16",0,50,"R",1
"1767","24",54,"multi_trial",80,"17",0,50,"L",0
"1768","24",77,"multi_trial",80,"18",1,50,"R",1
"1769","24",149,"multi_trial",80,"19",0,50,"R",1
"1770","24",46,"multi_trial",80,"20",0,50,"L",0
"1771","24",254,"multi_trial",80,"21",1,50,"R",1
"1772","24",229,"multi_trial",80,"22",1,50,"R",1
"1773","24",133,"multi_trial",80,"23",1,50,"R",1
"1774","24",20,"multi_trial",80,"24",1,50,"R",1
"1775","24",69,"multi_trial",80,"25",1,50,"R",1
"1776","24",36,"multi_trial",80,"26",0,50,"R",1
"1777","24",238,"multi_trial",80,"27",0,50,"L",0
"1778","24",125,"multi_trial",80,"28",1,50,"R",1
"1779","24",60,"multi_trial",80,"29",1,50,"R",1
"1780","24",78,"multi_trial",80,"30",1,50,"R",1
"1781","24",254,"multi_trial",80,"31",0,50,"R",1
"1782","24",229,"multi_trial",80,"32",0,50,"R",1
"1783","24",415,"multi_trial",80,"33",1,50,"R",1
"1784","24",54,"multi_trial",80,"34",1,50,"R",1
"1785","24",285,"multi_trial",80,"35",1,50,"R",1
"1786","24",95,"multi_trial",80,"36",1,50,"R",1
"1787","24",55,"multi_trial",80,"37",1,50,"R",1
"1788","24",61,"multi_trial",80,"38",0,50,"R",1
"1789","24",37,"multi_trial",80,"39",1,50,"R",1
"1790","24",53,"multi_trial",80,"40",1,50,"R",1
"1791","24",53,"multi_trial",80,"41",1,50,"R",1
"1792","24",53,"multi_trial",80,"42",1,50,"R",1
"1793","24",70,"multi_trial",80,"43",0,50,"R",1
"1794","24",213,"multi_trial",80,"44",0,50,"R",1
"1795","24",110,"multi_trial",80,"45",1,50,"R",1
"1796","24",254,"multi_trial",80,"46",1,50,"R",1
"1797","24",117,"multi_trial",80,"47",1,50,"R",1
"1798","24",86,"multi_trial",80,"48",1,50,"R",1
"1799","24",38,"multi_trial",80,"49",1,50,"R",1
"1800","24",52,"multi_trial",80,"50",1,50,"R",1
"1801","25",958,"multi_trial",80,"1",0,100,"L",0
"1802","25",445,"multi_trial",80,"2",0,100,"L",0
"1803","25",260,"multi_trial",80,"3",0,100,"L",0
"1804","25",428,"multi_trial",80,"4",0,100,"L",0
"1805","25",436,"multi_trial",80,"5",1,100,"R",1
"1806","25",197,"multi_trial",80,"6",1,100,"R",1
"1807","25",214,"multi_trial",80,"7",0,100,"R",1
"1808","25",324,"multi_trial",80,"8",0,100,"R",1
"1809","25",302,"multi_trial",80,"9",0,100,"L",0
"1810","25",166,"multi_trial",80,"10",0,100,"L",0
"1811","25",211,"multi_trial",80,"11",0,100,"L",0
"1812","25",132,"multi_trial",80,"12",0,100,"L",0
"1813","25",148,"multi_trial",80,"13",0,100,"L",0
"1814","25",135,"multi_trial",80,"14",0,100,"L",0
"1815","25",210,"multi_trial",80,"15",0,100,"L",0
"1816","25",220,"multi_trial",80,"16",1,100,"R",1
"1817","25",197,"multi_trial",80,"17",1,100,"R",1
"1818","25",251,"multi_trial",80,"18",1,100,"R",1
"1819","25",124,"multi_trial",80,"19",1,100,"R",1
"1820","25",164,"multi_trial",80,"20",1,100,"R",1
"1821","25",117,"multi_trial",80,"21",1,100,"R",1
"1822","25",76,"multi_trial",80,"22",0,100,"R",1
"1823","25",108,"multi_trial",80,"23",1,100,"R",1
"1824","25",156,"multi_trial",80,"24",1,100,"R",1
"1825","25",390,"multi_trial",80,"25",1,100,"R",1
"1826","25",180,"multi_trial",80,"26",1,100,"R",1
"1827","25",253,"multi_trial",80,"27",1,100,"R",1
"1828","25",163,"multi_trial",80,"28",1,100,"R",1
"1829","25",109,"multi_trial",80,"29",1,100,"R",1
"1830","25",349,"multi_trial",80,"30",1,100,"R",1
"1831","25",198,"multi_trial",80,"31",1,100,"R",1
"1832","25",195,"multi_trial",80,"32",1,100,"R",1
"1833","25",285,"multi_trial",80,"33",1,100,"R",1
"1834","25",172,"multi_trial",80,"34",1,100,"R",1
"1835","25",110,"multi_trial",80,"35",1,100,"R",1
"1836","25",46,"multi_trial",80,"36",1,100,"R",1
"1837","25",83,"multi_trial",80,"37",1,100,"R",1
"1838","25",141,"multi_trial",80,"38",1,100,"R",1
"1839","25",164,"multi_trial",80,"39",0,100,"R",1
"1840","25",135,"multi_trial",80,"40",0,100,"R",1
"1841","25",83,"multi_trial",80,"41",1,100,"L",0
"1842","25",84,"multi_trial",80,"42",1,100,"L",0
"1843","25",86,"multi_trial",80,"43",0,100,"L",0
"1844","25",61,"multi_trial",80,"44",1,100,"R",1
"1845","25",1,"multi_trial",80,"45",1,100,"R",1
"1846","25",144,"multi_trial",80,"46",1,100,"R",1
"1847","25",126,"multi_trial",80,"47",1,100,"R",1
"1848","25",53,"multi_trial",80,"48",1,100,"R",1
"1849","25",76,"multi_trial",80,"49",1,100,"R",1
"1850","25",781,"multi_trial",80,"50",1,100,"R",1
"1851","25",30,"multi_trial",80,"51",1,100,"R",1
"1852","25",61,"multi_trial",80,"52",1,100,"R",1
"1853","25",12,"multi_trial",80,"53",1,100,"R",1
"1854","25",420,"multi_trial",80,"54",0,100,"R",1
"1855","25",253,"multi_trial",80,"55",1,100,"L",0
"1856","25",156,"multi_trial",80,"56",0,100,"L",0
"1857","25",125,"multi_trial",80,"57",1,100,"R",1
"1858","25",67,"multi_trial",80,"58",0,100,"R",1
"1859","25",189,"multi_trial",80,"59",0,100,"L",0
"1860","25",148,"multi_trial",80,"60",1,100,"L",0
"1861","25",120,"multi_trial",80,"61",1,100,"R",1
"1862","25",50,"multi_trial",80,"62",1,100,"R",1
"1863","25",127,"multi_trial",80,"63",0,100,"R",1
"1864","25",83,"multi_trial",80,"64",1,100,"R",1
"1865","25",85,"multi_trial",80,"65",1,100,"R",1
"1866","25",60,"multi_trial",80,"66",1,100,"R",1
"1867","25",134,"multi_trial",80,"67",1,100,"R",1
"1868","25",854,"multi_trial",80,"68",1,100,"R",1
"1869","25",845,"multi_trial",80,"69",0,100,"R",1
"1870","25",76,"multi_trial",80,"70",1,100,"R",1
"1871","25",205,"multi_trial",80,"71",1,100,"R",1
"1872","25",189,"multi_trial",80,"72",1,100,"R",1
"1873","25",52,"multi_trial",80,"73",1,100,"R",1
"1874","25",55,"multi_trial",80,"74",0,100,"R",1
"1875","25",18,"multi_trial",80,"75",0,100,"R",1
"1876","25",45,"multi_trial",80,"76",0,100,"L",0
"1877","25",37,"multi_trial",80,"77",0,100,"R",1
"1878","25",92,"multi_trial",80,"78",1,100,"R",1
"1879","25",60,"multi_trial",80,"79",1,100,"R",1
"1880","25",61,"multi_trial",80,"80",1,100,"R",1
"1881","25",821,"multi_trial",80,"81",0,100,"R",1
"1882","25",142,"multi_trial",80,"82",1,100,"R",1
"1883","25",124,"multi_trial",80,"83",1,100,"R",1
"1884","25",150,"multi_trial",80,"84",0,100,"R",1
"1885","25",67,"multi_trial",80,"85",1,100,"R",1
"1886","25",93,"multi_trial",80,"86",1,100,"R",1
"1887","25",101,"multi_trial",80,"87",1,100,"R",1
"1888","25",30,"multi_trial",80,"88",1,100,"R",1
"1889","25",77,"multi_trial",80,"89",1,100,"R",1
"1890","25",493,"multi_trial",80,"90",1,100,"R",1
"1891","25",573,"multi_trial",80,"91",1,100,"R",1
"1892","25",221,"multi_trial",80,"92",1,100,"R",1
"1893","25",101,"multi_trial",80,"93",1,100,"R",1
"1894","25",71,"multi_trial",80,"94",1,100,"R",1
"1895","25",103,"multi_trial",80,"95",1,100,"R",1
"1896","25",116,"multi_trial",80,"96",0,100,"R",1
"1897","25",213,"multi_trial",80,"97",0,100,"R",1
"1898","25",77,"multi_trial",80,"98",0,100,"L",0
"1899","25",477,"multi_trial",80,"99",1,100,"R",1
"1900","25",110,"multi_trial",80,"100",1,100,"R",1
"1901","26",1356,"multi_trial",60,"1",1,100,"R",1
"1902","26",1492,"multi_trial",60,"2",1,100,"R",1
"1903","26",794,"multi_trial",60,"3",1,100,"R",1
"1904","26",651,"multi_trial",60,"4",0,100,"R",1
"1905","26",687,"multi_trial",60,"5",1,100,"L",0
"1906","26",716,"multi_trial",60,"6",1,100,"L",0
"1907","26",497,"multi_trial",60,"7",1,100,"R",1
"1908","26",487,"multi_trial",60,"8",0,100,"R",1
"1909","26",1013,"multi_trial",60,"9",0,100,"R",1
"1910","26",515,"multi_trial",60,"10",1,100,"L",0
"1911","26",748,"multi_trial",60,"11",1,100,"R",1
"1912","26",541,"multi_trial",60,"12",1,100,"R",1
"1913","26",458,"multi_trial",60,"13",1,100,"L",0
"1914","26",444,"multi_trial",60,"14",0,100,"L",0
"1915","26",538,"multi_trial",60,"15",1,100,"L",0
"1916","26",477,"multi_trial",60,"16",0,100,"R",1
"1917","26",489,"multi_trial",60,"17",0,100,"L",0
"1918","26",515,"multi_trial",60,"18",1,100,"L",0
"1919","26",460,"multi_trial",60,"19",0,100,"R",1
"1920","26",577,"multi_trial",60,"20",0,100,"L",0
"1921","26",477,"multi_trial",60,"21",0,100,"L",0
"1922","26",475,"multi_trial",60,"22",0,100,"L",0
"1923","26",444,"multi_trial",60,"23",0,100,"L",0
"1924","26",482,"multi_trial",60,"24",0,100,"R",1
"1925","26",456,"multi_trial",60,"25",0,100,"L",0
"1926","26",464,"multi_trial",60,"26",0,100,"R",1
"1927","26",490,"multi_trial",60,"27",0,100,"R",1
"1928","26",513,"multi_trial",60,"28",1,100,"L",0
"1929","26",473,"multi_trial",60,"29",0,100,"L",0
"1930","26",525,"multi_trial",60,"30",0,100,"R",1
"1931","26",437,"multi_trial",60,"31",0,100,"R",1
"1932","26",434,"multi_trial",60,"32",1,100,"L",0
"1933","26",439,"multi_trial",60,"33",1,100,"L",0
"1934","26",428,"multi_trial",60,"34",0,100,"L",0
"1935","26",565,"multi_trial",60,"35",1,100,"R",1
"1936","26",439,"multi_trial",60,"36",1,100,"R",1
"1937","26",459,"multi_trial",60,"37",1,100,"R",1
"1938","26",396,"multi_trial",60,"38",1,100,"R",1
"1939","26",509,"multi_trial",60,"39",1,100,"R",1
"1940","26",477,"multi_trial",60,"40",0,100,"R",1
"1941","26",548,"multi_trial",60,"41",0,100,"L",0
"1942","26",692,"multi_trial",60,"42",1,100,"R",1
"1943","26",464,"multi_trial",60,"43",1,100,"R",1
"1944","26",491,"multi_trial",60,"44",1,100,"R",1
"1945","26",403,"multi_trial",60,"45",0,100,"R",1
"1946","26",463,"multi_trial",60,"46",1,100,"L",0
"1947","26",254,"multi_trial",60,"47",0,100,"L",0
"1948","26",479,"multi_trial",60,"48",1,100,"R",1
"1949","26",531,"multi_trial",60,"49",0,100,"L",0
"1950","26",489,"multi_trial",60,"50",0,100,"R",1
"1951","26",469,"multi_trial",60,"51",0,100,"L",0
"1952","26",554,"multi_trial",60,"52",0,100,"R",1
"1953","26",482,"multi_trial",60,"53",1,100,"L",0
"1954","26",510,"multi_trial",60,"54",1,100,"L",0
"1955","26",451,"multi_trial",60,"55",0,100,"L",0
"1956","26",341,"multi_trial",60,"56",1,100,"R",1
"1957","26",486,"multi_trial",60,"57",1,100,"R",1
"1958","26",494,"multi_trial",60,"58",1,100,"R",1
"1959","26",585,"multi_trial",60,"59",0,100,"R",1
"1960","26",523,"multi_trial",60,"60",0,100,"L",0
"1961","26",427,"multi_trial",60,"61",1,100,"R",1
"1962","26",393,"multi_trial",60,"62",1,100,"R",1
"1963","26",379,"multi_trial",60,"63",0,100,"R",1
"1964","26",477,"multi_trial",60,"64",0,100,"L",0
"1965","26",528,"multi_trial",60,"65",0,100,"L",0
"1966","26",458,"multi_trial",60,"66",1,100,"R",1
"1967","26",526,"multi_trial",60,"67",0,100,"R",1
"1968","26",536,"multi_trial",60,"68",0,100,"R",1
"1969","26",481,"multi_trial",60,"69",0,100,"L",0
"1970","26",546,"multi_trial",60,"70",0,100,"R",1
"1971","26",650,"multi_trial",60,"71",1,100,"L",0
"1972","26",216,"multi_trial",60,"72",1,100,"L",0
"1973","26",379,"multi_trial",60,"73",0,100,"L",0
"1974","26",586,"multi_trial",60,"74",1,100,"R",1
"1975","26",565,"multi_trial",60,"75",0,100,"R",1
"1976","26",486,"multi_trial",60,"76",0,100,"L",0
"1977","26",510,"multi_trial",60,"77",1,100,"L",0
"1978","26",436,"multi_trial",60,"78",1,100,"R",1
"1979","26",423,"multi_trial",60,"79",0,100,"L",0
"1980","26",511,"multi_trial",60,"80",1,100,"R",1
"1981","26",500,"multi_trial",60,"81",1,100,"R",1
"1982","26",440,"multi_trial",60,"82",0,100,"R",1
"1983","26",474,"multi_trial",60,"83",1,100,"L",0
"1984","26",144,"multi_trial",60,"84",0,100,"L",0
"1985","26",1175,"multi_trial",60,"85",1,100,"R",1
"1986","26",170,"multi_trial",60,"86",1,100,"R",1
"1987","26",428,"multi_trial",60,"87",1,100,"R",1
"1988","26",530,"multi_trial",60,"88",0,100,"R",1
"1989","26",478,"multi_trial",60,"89",1,100,"L",0
"1990","26",520,"multi_trial",60,"90",0,100,"L",0
"1991","26",514,"multi_trial",60,"91",1,100,"R",1
"1992","26",17,"multi_trial",60,"92",1,100,"R",1
"1993","26",337,"multi_trial",60,"93",1,100,"R",1
"1994","26",332,"multi_trial",60,"94",0,100,"L",0
"1995","26",384,"multi_trial",60,"95",1,100,"R",1
"1996","26",437,"multi_trial",60,"96",1,100,"R",1
"1997","26",296,"multi_trial",60,"97",1,100,"R",1
"1998","26",370,"multi_trial",60,"98",0,100,"R",1
"1999","26",477,"multi_trial",60,"99",0,100,"L",0
"2000","26",455,"multi_trial",60,"100",1,100,"R",1
"2001","27",1116,"multi_trial",80,"1",1,100,"R",1
"2002","27",1087,"multi_trial",80,"2",1,100,"R",1
"2003","27",683,"multi_trial",80,"3",1,100,"R",1
"2004","27",2000,"multi_trial",80,"4",-1,100,"timeout",0
"2005","27",1275,"multi_trial",80,"5",1,100,"R",1
"2006","27",500,"multi_trial",80,"6",1,100,"R",1
"2007","27",430,"multi_trial",80,"7",0,100,"R",1
"2008","27",688,"multi_trial",80,"8",1,100,"R",1
"2009","27",544,"multi_trial",80,"9",0,100,"L",0
"2010","27",540,"multi_trial",80,"10",0,100,"R",1
"2011","27",627,"multi_trial",80,"11",0,100,"L",0
"2012","27",511,"multi_trial",80,"12",0,100,"L",0
"2013","27",646,"multi_trial",80,"13",0,100,"L",0
"2014","27",659,"multi_trial",80,"14",0,100,"L",0
"2015","27",544,"multi_trial",80,"15",1,100,"L",0
"2016","27",525,"multi_trial",80,"16",1,100,"R",1
"2017","27",478,"multi_trial",80,"17",0,100,"R",1
"2018","27",507,"multi_trial",80,"18",1,100,"R",1
"2019","27",919,"multi_trial",80,"19",0,100,"R",1
"2020","27",533,"multi_trial",80,"20",0,100,"L",0
"2021","27",1375,"multi_trial",80,"21",1,100,"L",0
"2022","27",490,"multi_trial",80,"22",0,100,"R",1
"2023","27",490,"multi_trial",80,"23",0,100,"L",0
"2024","27",606,"multi_trial",80,"24",1,100,"L",0
"2025","27",535,"multi_trial",80,"25",1,100,"R",1
"2026","27",570,"multi_trial",80,"26",1,100,"R",1
"2027","27",510,"multi_trial",80,"27",1,100,"R",1
"2028","27",687,"multi_trial",80,"28",1,100,"R",1
"2029","27",509,"multi_trial",80,"29",0,100,"L",0
"2030","27",529,"multi_trial",80,"30",0,100,"L",0
"2031","27",650,"multi_trial",80,"31",0,100,"L",0
"2032","27",463,"multi_trial",80,"32",1,100,"R",1
"2033","27",516,"multi_trial",80,"33",0,100,"L",0
"2034","27",500,"multi_trial",80,"34",1,100,"R",1
"2035","27",450,"multi_trial",80,"35",1,100,"R",1
"2036","27",465,"multi_trial",80,"36",1,100,"R",1
"2037","27",517,"multi_trial",80,"37",0,100,"L",0
"2038","27",482,"multi_trial",80,"38",1,100,"R",1
"2039","27",476,"multi_trial",80,"39",0,100,"R",1
"2040","27",893,"multi_trial",80,"40",0,100,"L",0
"2041","27",607,"multi_trial",80,"41",1,100,"R",1
"2042","27",531,"multi_trial",80,"42",1,100,"R",1
"2043","27",483,"multi_trial",80,"43",1,100,"R",1
"2044","27",416,"multi_trial",80,"44",1,100,"R",1
"2045","27",490,"multi_trial",80,"45",1,100,"R",1
"2046","27",816,"multi_trial",80,"46",1,100,"R",1
"2047","27",467,"multi_trial",80,"47",1,100,"R",1
"2048","27",491,"multi_trial",80,"48",0,100,"L",0
"2049","27",474,"multi_trial",80,"49",1,100,"R",1
"2050","27",577,"multi_trial",80,"50",0,100,"L",0
