workerid	rt	trial_type	Lbias	bias	trial	result	response	bias_direction
0	619	multi_trial	0.8	80	1	0	L	L
0	699	multi_trial	0.8	80	2	1	L	L
0	642	multi_trial	0.8	80	3	1	L	L
0	658	multi_trial	0.8	80	4	0	R	L
0	666	multi_trial	0.8	80	5	1	R	L
0	525	multi_trial	0.8	80	6	1	L	L
0	575	multi_trial	0.8	80	7	1	L	L
0	966	multi_trial	0.8	80	8	0	R	L
0	494	multi_trial	0.8	80	9	1	L	L
0	406	multi_trial	0.8	80	10	1	L	L
0	134	multi_trial	0.8	80	11	0	R	L
0	422	multi_trial	0.8	80	12	1	L	L
0	295	multi_trial	0.8	80	13	0	R	L
0	446	multi_trial	0.8	80	14	1	L	L
0	262	multi_trial	0.8	80	15	0	R	L
0	399	multi_trial	0.8	80	16	1	L	L
0	393	multi_trial	0.8	80	17	0	R	L
0	442	multi_trial	0.8	80	18	1	R	L
0	398	multi_trial	0.8	80	19	0	R	L
0	422	multi_trial	0.8	80	20	1	R	L
0	346	multi_trial	0.8	80	21	1	L	L
0	238	multi_trial	0.8	80	22	0	R	L
0	110	multi_trial	0.8	80	23	1	L	L
0	215	multi_trial	0.8	80	24	0	L	L
0	101	multi_trial	0.8	80	25	0	L	L
0	26	multi_trial	0.8	80	26	1	R	L
0	662	multi_trial	0.8	80	27	1	L	L
0	455	multi_trial	0.8	80	28	1	L	L
0	282	multi_trial	0.8	80	29	1	L	L
0	1241	multi_trial	0.8	80	30	1	L	L
0	254	multi_trial	0.8	80	31	0	R	L
0	43	multi_trial	0.8	80	32	1	L	L
0	202	multi_trial	0.8	80	33	1	L	L
0	86	multi_trial	0.8	80	34	1	L	L
0	203	multi_trial	0.8	80	35	0	L	L
0	62	multi_trial	0.8	80	36	1	L	L
0	58	multi_trial	0.8	80	37	1	L	L
0	295	multi_trial	0.8	80	38	1	L	L
0	47	multi_trial	0.8	80	39	0	L	L
0	170	multi_trial	0.8	80	40	0	R	L
0	621	multi_trial	0.8	80	41	1	L	L
0	199	multi_trial	0.8	80	42	1	L	L
0	259	multi_trial	0.8	80	43	1	L	L
0	225	multi_trial	0.8	80	44	1	L	L
0	378	multi_trial	0.8	80	45	1	L	L
0	598	multi_trial	0.8	80	46	1	L	L
0	1090	multi_trial	0.8	80	47	1	L	L
0	182	multi_trial	0.8	80	48	1	L	L
0	911	multi_trial	0.8	80	49	0	L	L
0	586	multi_trial	0.8	80	50	1	L	L
0	4104	elicit_prevalence	0.8	80	catch1	NA	2	L
0	5436	elicit_prevalence	0.8	80	catch2	NA	2	L
0	5709	elicit_prevalence	0.8	80	catch3	NA	30	L
0	3745	elicit_prevalence	0.8	80	prevalence	NA	25	L
1	1046	multi_trial	0.8	80	1	1	L	L
1	530	multi_trial	0.8	80	2	1	L	L
1	418	multi_trial	0.8	80	3	1	L	L
1	382	multi_trial	0.8	80	4	0	L	L
1	349	multi_trial	0.8	80	5	0	R	L
1	451	multi_trial	0.8	80	6	0	R	L
1	246	multi_trial	0.8	80	7	1	L	L
1	419	multi_trial	0.8	80	8	1	L	L
1	237	multi_trial	0.8	80	9	1	L	L
1	349	multi_trial	0.8	80	10	1	L	L
1	300	multi_trial	0.8	80	11	1	L	L
1	413	multi_trial	0.8	80	12	1	L	L
1	277	multi_trial	0.8	80	13	1	L	L
1	444	multi_trial	0.8	80	14	0	L	L
1	285	multi_trial	0.8	80	15	0	L	L
1	469	multi_trial	0.8	80	16	1	L	L
1	370	multi_trial	0.8	80	17	1	L	L
1	182	multi_trial	0.8	80	18	1	L	L
1	238	multi_trial	0.8	80	19	1	L	L
1	236	multi_trial	0.8	80	20	1	L	L
1	430	multi_trial	0.8	80	21	1	L	L
1	396	multi_trial	0.8	80	22	1	L	L
1	277	multi_trial	0.8	80	23	1	L	L
1	432	multi_trial	0.8	80	24	1	L	L
1	409	multi_trial	0.8	80	25	0	L	L
1	295	multi_trial	0.8	80	26	1	L	L
1	300	multi_trial	0.8	80	27	1	L	L
1	35	multi_trial	0.8	80	28	1	L	L
1	453	multi_trial	0.8	80	29	1	L	L
1	61	multi_trial	0.8	80	30	0	L	L
1	219	multi_trial	0.8	80	31	0	L	L
1	269	multi_trial	0.8	80	32	1	L	L
1	29	multi_trial	0.8	80	33	1	L	L
1	356	multi_trial	0.8	80	34	1	L	L
1	280	multi_trial	0.8	80	35	1	L	L
1	226	multi_trial	0.8	80	36	1	L	L
1	397	multi_trial	0.8	80	37	0	L	L
1	652	multi_trial	0.8	80	38	1	R	L
1	684	multi_trial	0.8	80	39	1	L	L
1	452	multi_trial	0.8	80	40	1	L	L
1	491	multi_trial	0.8	80	41	1	L	L
1	508	multi_trial	0.8	80	42	1	L	L
1	492	multi_trial	0.8	80	43	1	L	L
1	475	multi_trial	0.8	80	44	1	R	L
1	455	multi_trial	0.8	80	45	0	R	L
1	586	multi_trial	0.8	80	46	0	L	L
1	452	multi_trial	0.8	80	47	1	L	L
1	412	multi_trial	0.8	80	48	1	L	L
1	398	multi_trial	0.8	80	49	1	L	L
1	340	multi_trial	0.8	80	50	1	L	L
1	5854	elicit_prevalence	0.8	80	catch1	NA	2	L
1	27116	elicit_prevalence	0.8	80	catch2	NA	1	L
1	6530	elicit_prevalence	0.8	80	catch3	NA	39	L
1	9917	elicit_prevalence	0.8	80	prevalence	NA	10	L
2	1916	multi_trial	0.2	80	1	0	R	R
2	677	multi_trial	0.2	80	2	1	R	R
2	2000	multi_trial	0.2	80	3	-1	timeout	R
2	95	multi_trial	0.2	80	4	0	L	R
2	2000	multi_trial	0.2	80	5	-1	timeout	R
2	2000	multi_trial	0.2	80	6	-1	timeout	R
2	238	multi_trial	0.2	80	7	1	R	R
2	710	multi_trial	0.2	80	8	0	L	R
2	761	multi_trial	0.2	80	9	1	L	R
2	797	multi_trial	0.2	80	10	1	R	R
2	1454	multi_trial	0.2	80	11	1	R	R
2	2000	multi_trial	0.2	80	12	-1	timeout	R
2	264	multi_trial	0.2	80	13	1	R	R
2	416	multi_trial	0.2	80	14	1	L	R
2	1468	multi_trial	0.2	80	15	1	R	R
2	599	multi_trial	0.2	80	16	0	L	R
2	212	multi_trial	0.2	80	17	0	L	R
2	215	multi_trial	0.2	80	18	0	L	R
2	277	multi_trial	0.2	80	19	1	L	R
2	196	multi_trial	0.2	80	20	0	L	R
2	190	multi_trial	0.2	80	21	1	R	R
2	109	multi_trial	0.2	80	22	0	L	R
2	884	multi_trial	0.2	80	23	1	R	R
2	999	multi_trial	0.2	80	24	0	R	R
2	85	multi_trial	0.2	80	25	1	R	R
2	156	multi_trial	0.2	80	26	1	R	R
2	12	multi_trial	0.2	80	27	1	R	R
2	37	multi_trial	0.2	80	28	1	R	R
2	1276	multi_trial	0.2	80	29	1	R	R
2	749	multi_trial	0.2	80	30	0	L	R
2	1019	multi_trial	0.2	80	31	0	R	R
2	797	multi_trial	0.2	80	32	0	R	R
2	901	multi_trial	0.2	80	33	1	R	R
2	742	multi_trial	0.2	80	34	1	R	R
2	693	multi_trial	0.2	80	35	1	R	R
2	1209	multi_trial	0.2	80	36	1	R	R
2	647	multi_trial	0.2	80	37	1	R	R
2	572	multi_trial	0.2	80	38	1	R	R
2	549	multi_trial	0.2	80	39	1	R	R
2	277	multi_trial	0.2	80	40	0	R	R
2	309	multi_trial	0.2	80	41	1	R	R
2	77	multi_trial	0.2	80	42	1	R	R
2	70	multi_trial	0.2	80	43	0	R	R
2	324	multi_trial	0.2	80	44	1	R	R
2	316	multi_trial	0.2	80	45	1	R	R
2	101	multi_trial	0.2	80	46	1	R	R
2	923	multi_trial	0.2	80	47	1	R	R
2	462	multi_trial	0.2	80	48	1	R	R
2	1135	multi_trial	0.2	80	49	1	R	R
2	146	multi_trial	0.2	80	50	1	R	R
2	8861	elicit_prevalence	0.2	80	catch1	NA	2	R
2	16689	elicit_prevalence	0.2	80	catch2	NA	2	R
2	6893	elicit_prevalence	0.2	80	catch3	NA	50	R
2	17543	elicit_prevalence	0.2	80	prevalence	NA	40	R
3	905	multi_trial	0.8	80	1	1	L	L
3	524	multi_trial	0.8	80	2	0	R	L
3	428	multi_trial	0.8	80	3	1	L	L
3	372	multi_trial	0.8	80	4	1	L	L
3	373	multi_trial	0.8	80	5	1	L	L
3	343	multi_trial	0.8	80	6	1	L	L
3	333	multi_trial	0.8	80	7	1	L	L
3	391	multi_trial	0.8	80	8	1	L	L
3	350	multi_trial	0.8	80	9	1	L	L
3	357	multi_trial	0.8	80	10	0	L	L
3	421	multi_trial	0.8	80	11	1	L	L
3	430	multi_trial	0.8	80	12	1	L	L
3	445	multi_trial	0.8	80	13	0	L	L
3	425	multi_trial	0.8	80	14	1	L	L
3	477	multi_trial	0.8	80	15	1	L	L
3	428	multi_trial	0.8	80	16	1	L	L
3	342	multi_trial	0.8	80	17	0	L	L
3	404	multi_trial	0.8	80	18	0	L	L
3	354	multi_trial	0.8	80	19	1	L	L
3	454	multi_trial	0.8	80	20	1	L	L
3	420	multi_trial	0.8	80	21	1	L	L
3	414	multi_trial	0.8	80	22	1	L	L
3	332	multi_trial	0.8	80	23	1	L	L
3	349	multi_trial	0.8	80	24	0	L	L
3	190	multi_trial	0.8	80	25	1	L	L
3	288	multi_trial	0.8	80	26	1	L	L
3	286	multi_trial	0.8	80	27	1	L	L
3	286	multi_trial	0.8	80	28	0	L	L
3	37	multi_trial	0.8	80	29	1	L	L
3	118	multi_trial	0.8	80	30	0	L	L
3	853	multi_trial	0.8	80	31	1	L	L
3	207	multi_trial	0.8	80	32	1	L	L
3	220	multi_trial	0.8	80	33	1	L	L
3	230	multi_trial	0.8	80	34	1	L	L
3	245	multi_trial	0.8	80	35	1	L	L
3	156	multi_trial	0.8	80	36	1	L	L
3	110	multi_trial	0.8	80	37	1	L	L
3	133	multi_trial	0.8	80	38	0	L	L
3	85	multi_trial	0.8	80	39	0	L	L
3	77	multi_trial	0.8	80	40	1	L	L
3	144	multi_trial	0.8	80	41	0	L	L
3	201	multi_trial	0.8	80	42	1	L	L
3	110	multi_trial	0.8	80	43	1	L	L
3	47	multi_trial	0.8	80	44	1	L	L
3	76	multi_trial	0.8	80	45	1	L	L
3	66	multi_trial	0.8	80	46	1	L	L
3	1	multi_trial	0.8	80	47	1	L	L
3	1014	multi_trial	0.8	80	48	1	L	L
3	310	multi_trial	0.8	80	49	1	L	L
3	141	multi_trial	0.8	80	50	1	L	L
3	3025	elicit_prevalence	0.8	80	catch1	NA	2	L
3	25470	elicit_prevalence	0.8	80	catch2	NA	2	L
3	5712	elicit_prevalence	0.8	80	catch3	NA	50	L
3	8088	elicit_prevalence	0.8	80	prevalence	NA	50	L
4	1228	multi_trial	0.8	80	1	1	L	L
4	553	multi_trial	0.8	80	2	1	L	L
4	250	multi_trial	0.8	80	3	0	R	L
4	421	multi_trial	0.8	80	4	0	R	L
4	390	multi_trial	0.8	80	5	1	R	L
4	487	multi_trial	0.8	80	6	1	R	L
4	354	multi_trial	0.8	80	7	1	L	L
4	325	multi_trial	0.8	80	8	1	L	L
4	326	multi_trial	0.8	80	9	1	L	L
4	342	multi_trial	0.8	80	10	1	R	L
4	292	multi_trial	0.8	80	11	0	R	L
4	374	multi_trial	0.8	80	12	0	R	L
4	470	multi_trial	0.8	80	13	0	R	L
4	486	multi_trial	0.8	80	14	1	R	L
4	466	multi_trial	0.8	80	15	0	R	L
4	440	multi_trial	0.8	80	16	1	L	L
4	387	multi_trial	0.8	80	17	1	L	L
4	343	multi_trial	0.8	80	18	0	L	L
4	326	multi_trial	0.8	80	19	1	L	L
4	273	multi_trial	0.8	80	20	1	L	L
4	371	multi_trial	0.8	80	21	1	L	L
4	328	multi_trial	0.8	80	22	1	L	L
4	310	multi_trial	0.8	80	23	1	L	L
4	296	multi_trial	0.8	80	24	0	R	L
4	321	multi_trial	0.8	80	25	0	R	L
4	277	multi_trial	0.8	80	26	1	L	L
4	310	multi_trial	0.8	80	27	1	R	L
4	278	multi_trial	0.8	80	28	0	R	L
4	359	multi_trial	0.8	80	29	1	R	L
4	226	multi_trial	0.8	80	30	0	R	L
4	389	multi_trial	0.8	80	31	1	L	L
4	310	multi_trial	0.8	80	32	0	L	L
4	374	multi_trial	0.8	80	33	1	L	L
4	371	multi_trial	0.8	80	34	1	L	L
4	377	multi_trial	0.8	80	35	0	L	L
4	386	multi_trial	0.8	80	36	1	L	L
4	358	multi_trial	0.8	80	37	1	L	L
4	347	multi_trial	0.8	80	38	1	L	L
4	316	multi_trial	0.8	80	39	1	L	L
4	406	multi_trial	0.8	80	40	1	L	L
4	327	multi_trial	0.8	80	41	1	L	L
4	405	multi_trial	0.8	80	42	1	L	L
4	435	multi_trial	0.8	80	43	1	L	L
4	372	multi_trial	0.8	80	44	0	R	L
4	390	multi_trial	0.8	80	45	1	L	L
4	517	multi_trial	0.8	80	46	1	L	L
4	424	multi_trial	0.8	80	47	0	L	L
4	433	multi_trial	0.8	80	48	1	L	L
4	479	multi_trial	0.8	80	49	1	L	L
4	374	multi_trial	0.8	80	50	1	L	L
4	12866	elicit_prevalence	0.8	80	catch1	NA	2	L
4	6727	elicit_prevalence	0.8	80	catch2	NA	2	L
4	7063	elicit_prevalence	0.8	80	catch3	NA	35	L
4	9217	elicit_prevalence	0.8	80	prevalence	NA	70	L
5	991	multi_trial	0.4	60	1	1	L	R
5	542	multi_trial	0.4	60	2	0	L	R
5	381	multi_trial	0.4	60	3	1	L	R
5	1266	multi_trial	0.4	60	4	0	R	R
5	637	multi_trial	0.4	60	5	0	R	R
5	470	multi_trial	0.4	60	6	1	R	R
5	429	multi_trial	0.4	60	7	0	R	R
5	337	multi_trial	0.4	60	8	1	L	R
5	373	multi_trial	0.4	60	9	0	L	R
5	351	multi_trial	0.4	60	10	0	L	R
5	216	multi_trial	0.4	60	11	0	L	R
5	262	multi_trial	0.4	60	12	0	L	R
5	103	multi_trial	0.4	60	13	1	L	R
5	138	multi_trial	0.4	60	14	0	L	R
5	252	multi_trial	0.4	60	15	0	L	R
5	306	multi_trial	0.4	60	16	0	R	R
5	183	multi_trial	0.4	60	17	0	L	R
5	657	multi_trial	0.4	60	18	0	L	R
5	343	multi_trial	0.4	60	19	1	R	R
5	214	multi_trial	0.4	60	20	1	R	R
5	123	multi_trial	0.4	60	21	1	R	R
5	124	multi_trial	0.4	60	22	1	R	R
5	160	multi_trial	0.4	60	23	0	R	R
5	262	multi_trial	0.4	60	24	1	R	R
5	30	multi_trial	0.4	60	25	1	R	R
5	813	multi_trial	0.4	60	26	0	R	R
5	140	multi_trial	0.4	60	27	0	R	R
5	351	multi_trial	0.4	60	28	0	L	R
5	0	multi_trial	0.4	60	29	0	R	R
5	69	multi_trial	0.4	60	30	0	R	R
5	849	multi_trial	0.4	60	31	0	L	R
5	29	multi_trial	0.4	60	32	1	R	R
5	955	multi_trial	0.4	60	33	1	R	R
5	28	multi_trial	0.4	60	34	1	R	R
5	1040	multi_trial	0.4	60	35	1	R	R
5	454	multi_trial	0.4	60	36	1	R	R
5	682	multi_trial	0.4	60	37	1	R	R
5	338	multi_trial	0.4	60	38	0	R	R
5	380	multi_trial	0.4	60	39	1	R	R
5	249	multi_trial	0.4	60	40	1	R	R
5	366	multi_trial	0.4	60	41	0	R	R
5	367	multi_trial	0.4	60	42	1	R	R
5	303	multi_trial	0.4	60	43	0	R	R
5	304	multi_trial	0.4	60	44	1	R	R
5	165	multi_trial	0.4	60	45	0	R	R
5	138	multi_trial	0.4	60	46	0	R	R
5	57	multi_trial	0.4	60	47	0	R	R
5	195	multi_trial	0.4	60	48	1	L	R
5	284	multi_trial	0.4	60	49	0	L	R
5	190	multi_trial	0.4	60	50	1	R	R
5	5458	elicit_prevalence	0.4	60	catch1	NA	2	R
5	5428	elicit_prevalence	0.4	60	catch2	NA	2	R
5	3153	elicit_prevalence	0.4	60	catch3	NA	50	R
5	6257	elicit_prevalence	0.4	60	prevalence	NA	40	R
6	1972	multi_trial	0.4	60	1	0	R	R
6	1270	multi_trial	0.4	60	2	1	R	R
6	876	multi_trial	0.4	60	3	1	R	R
6	938	multi_trial	0.4	60	4	1	R	R
6	705	multi_trial	0.4	60	5	1	L	R
6	899	multi_trial	0.4	60	6	0	L	R
6	1511	multi_trial	0.4	60	7	1	L	R
6	941	multi_trial	0.4	60	8	1	R	R
6	1012	multi_trial	0.4	60	9	1	R	R
6	1141	multi_trial	0.4	60	10	1	R	R
6	953	multi_trial	0.4	60	11	0	R	R
6	743	multi_trial	0.4	60	12	1	R	R
6	1073	multi_trial	0.4	60	13	0	R	R
6	695	multi_trial	0.4	60	14	1	R	R
6	781	multi_trial	0.4	60	15	0	L	R
6	556	multi_trial	0.4	60	16	1	L	R
6	492	multi_trial	0.4	60	17	1	R	R
6	649	multi_trial	0.4	60	18	1	L	R
6	713	multi_trial	0.4	60	19	0	R	R
6	426	multi_trial	0.4	60	20	1	R	R
6	684	multi_trial	0.4	60	21	0	L	R
6	549	multi_trial	0.4	60	22	1	L	R
6	587	multi_trial	0.4	60	23	1	R	R
6	1568	multi_trial	0.4	60	24	1	L	R
6	894	multi_trial	0.4	60	25	1	R	R
6	883	multi_trial	0.4	60	26	0	R	R
6	481	multi_trial	0.4	60	27	1	R	R
6	932	multi_trial	0.4	60	28	1	L	R
6	763	multi_trial	0.4	60	29	0	L	R
6	517	multi_trial	0.4	60	30	1	L	R
6	626	multi_trial	0.4	60	31	0	L	R
6	608	multi_trial	0.4	60	32	0	L	R
6	328	multi_trial	0.4	60	33	1	L	R
6	489	multi_trial	0.4	60	34	1	R	R
6	492	multi_trial	0.4	60	35	0	R	R
6	465	multi_trial	0.4	60	36	1	R	R
6	532	multi_trial	0.4	60	37	1	R	R
6	568	multi_trial	0.4	60	38	1	L	R
6	1443	multi_trial	0.4	60	39	1	R	R
6	1436	multi_trial	0.4	60	40	0	L	R
6	548	multi_trial	0.4	60	41	1	L	R
6	474	multi_trial	0.4	60	42	0	R	R
6	445	multi_trial	0.4	60	43	1	R	R
6	489	multi_trial	0.4	60	44	1	R	R
6	1123	multi_trial	0.4	60	45	0	R	R
6	472	multi_trial	0.4	60	46	1	R	R
6	620	multi_trial	0.4	60	47	0	L	R
6	451	multi_trial	0.4	60	48	0	L	R
6	358	multi_trial	0.4	60	49	1	L	R
6	484	multi_trial	0.4	60	50	1	R	R
6	8239	elicit_prevalence	0.4	60	catch1	NA	2	R
6	7688	elicit_prevalence	0.4	60	catch2	NA	2	R
6	9648	elicit_prevalence	0.4	60	catch3	NA	40	R
6	8663	elicit_prevalence	0.4	60	prevalence	NA	45	R
7	552	multi_trial	0.6	60	1	0	L	L
7	553	multi_trial	0.6	60	2	1	L	L
7	573	multi_trial	0.6	60	3	1	L	L
7	519	multi_trial	0.6	60	4	0	R	L
7	527	multi_trial	0.6	60	5	1	R	L
7	623	multi_trial	0.6	60	6	1	L	L
7	681	multi_trial	0.6	60	7	0	R	L
7	636	multi_trial	0.6	60	8	0	R	L
7	732	multi_trial	0.6	60	9	0	R	L
7	680	multi_trial	0.6	60	10	0	R	L
7	676	multi_trial	0.6	60	11	0	R	L
7	819	multi_trial	0.6	60	12	0	R	L
7	1158	multi_trial	0.6	60	13	1	L	L
7	619	multi_trial	0.6	60	14	1	R	L
7	978	multi_trial	0.6	60	15	0	R	L
7	507	multi_trial	0.6	60	16	1	L	L
7	533	multi_trial	0.6	60	17	0	L	L
7	487	multi_trial	0.6	60	18	0	L	L
7	455	multi_trial	0.6	60	19	0	L	L
7	323	multi_trial	0.6	60	20	0	R	L
7	336	multi_trial	0.6	60	21	0	L	L
7	529	multi_trial	0.6	60	22	1	L	L
7	528	multi_trial	0.6	60	23	0	L	L
7	313	multi_trial	0.6	60	24	0	L	L
7	252	multi_trial	0.6	60	25	1	L	L
7	260	multi_trial	0.6	60	26	1	L	L
7	228	multi_trial	0.6	60	27	0	L	L
7	239	multi_trial	0.6	60	28	0	L	L
7	436	multi_trial	0.6	60	29	0	L	L
7	389	multi_trial	0.6	60	30	1	R	L
7	364	multi_trial	0.6	60	31	1	L	L
7	350	multi_trial	0.6	60	32	1	L	L
7	437	multi_trial	0.6	60	33	0	R	L
7	337	multi_trial	0.6	60	34	1	R	L
7	324	multi_trial	0.6	60	35	0	R	L
7	388	multi_trial	0.6	60	36	0	R	L
7	391	multi_trial	0.6	60	37	1	R	L
7	303	multi_trial	0.6	60	38	0	R	L
7	583	multi_trial	0.6	60	39	0	L	L
7	394	multi_trial	0.6	60	40	1	R	L
7	390	multi_trial	0.6	60	41	0	L	L
7	302	multi_trial	0.6	60	42	0	R	L
7	304	multi_trial	0.6	60	43	1	L	L
7	377	multi_trial	0.6	60	44	1	R	L
7	480	multi_trial	0.6	60	45	0	R	L
7	387	multi_trial	0.6	60	46	0	R	L
7	430	multi_trial	0.6	60	47	0	R	L
7	357	multi_trial	0.6	60	48	0	R	L
7	447	multi_trial	0.6	60	49	1	R	L
7	331	multi_trial	0.6	60	50	0	R	L
7	3030	elicit_prevalence	0.6	60	catch1	NA	2	L
7	11569	elicit_prevalence	0.6	60	catch2	NA	1	L
7	3629	elicit_prevalence	0.6	60	catch3	NA	50	L
7	5670	elicit_prevalence	0.6	60	prevalence	NA	50	L
8	1623	multi_trial	0.8	80	1	0	R	L
8	491	multi_trial	0.8	80	2	0	R	L
8	46	multi_trial	0.8	80	3	1	L	L
8	363	multi_trial	0.8	80	4	0	L	L
8	38	multi_trial	0.8	80	5	0	R	L
8	91	multi_trial	0.8	80	6	0	R	L
8	116	multi_trial	0.8	80	7	1	R	L
8	251	multi_trial	0.8	80	8	0	R	L
8	452	multi_trial	0.8	80	9	1	R	L
8	267	multi_trial	0.8	80	10	1	L	L
8	388	multi_trial	0.8	80	11	0	R	L
8	411	multi_trial	0.8	80	12	0	R	L
8	443	multi_trial	0.8	80	13	0	R	L
8	380	multi_trial	0.8	80	14	1	L	L
8	299	multi_trial	0.8	80	15	1	L	L
8	444	multi_trial	0.8	80	16	1	L	L
8	435	multi_trial	0.8	80	17	1	L	L
8	476	multi_trial	0.8	80	18	0	L	L
8	435	multi_trial	0.8	80	19	0	R	L
8	499	multi_trial	0.8	80	20	1	L	L
8	430	multi_trial	0.8	80	21	1	L	L
8	468	multi_trial	0.8	80	22	1	L	L
8	500	multi_trial	0.8	80	23	1	L	L
8	462	multi_trial	0.8	80	24	1	L	L
8	500	multi_trial	0.8	80	25	1	L	L
8	547	multi_trial	0.8	80	26	1	L	L
8	468	multi_trial	0.8	80	27	1	L	L
8	411	multi_trial	0.8	80	28	1	L	L
8	418	multi_trial	0.8	80	29	1	L	L
8	475	multi_trial	0.8	80	30	0	L	L
8	597	multi_trial	0.8	80	31	1	R	L
8	468	multi_trial	0.8	80	32	0	R	L
8	405	multi_trial	0.8	80	33	1	L	L
8	403	multi_trial	0.8	80	34	1	L	L
8	467	multi_trial	0.8	80	35	1	L	L
8	452	multi_trial	0.8	80	36	1	L	L
8	502	multi_trial	0.8	80	37	1	L	L
8	717	multi_trial	0.8	80	38	1	L	L
8	509	multi_trial	0.8	80	39	1	L	L
8	788	multi_trial	0.8	80	40	0	L	L
8	379	multi_trial	0.8	80	41	0	R	L
8	532	multi_trial	0.8	80	42	0	R	L
8	380	multi_trial	0.8	80	43	0	L	L
8	612	multi_trial	0.8	80	44	1	R	L
8	484	multi_trial	0.8	80	45	1	R	L
8	748	multi_trial	0.8	80	46	0	R	L
8	404	multi_trial	0.8	80	47	0	R	L
8	379	multi_trial	0.8	80	48	1	L	L
8	835	multi_trial	0.8	80	49	0	R	L
8	469	multi_trial	0.8	80	50	1	L	L
8	2834	elicit_prevalence	0.8	80	catch1	NA	2	L
8	6767	elicit_prevalence	0.8	80	catch2	NA	2	L
8	3492	elicit_prevalence	0.8	80	catch3	NA	50	L
8	4519	elicit_prevalence	0.8	80	prevalence	NA	50	L
9	703	multi_trial	0.6	60	1	1	L	L
9	895	multi_trial	0.6	60	2	1	R	L
9	477	multi_trial	0.6	60	3	0	R	L
9	473	multi_trial	0.6	60	4	0	R	L
9	420	multi_trial	0.6	60	5	0	L	L
9	626	multi_trial	0.6	60	6	0	R	L
9	844	multi_trial	0.6	60	7	1	R	L
9	424	multi_trial	0.6	60	8	0	L	L
9	626	multi_trial	0.6	60	9	0	R	L
9	416	multi_trial	0.6	60	10	0	R	L
9	458	multi_trial	0.6	60	11	0	R	L
9	255	multi_trial	0.6	60	12	0	L	L
9	505	multi_trial	0.6	60	13	1	R	L
9	416	multi_trial	0.6	60	14	1	L	L
9	436	multi_trial	0.6	60	15	1	L	L
9	584	multi_trial	0.6	60	16	0	R	L
9	369	multi_trial	0.6	60	17	0	R	L
9	278	multi_trial	0.6	60	18	1	R	L
9	334	multi_trial	0.6	60	19	0	R	L
9	325	multi_trial	0.6	60	20	1	R	L
9	400	multi_trial	0.6	60	21	1	L	L
9	322	multi_trial	0.6	60	22	0	L	L
9	372	multi_trial	0.6	60	23	1	R	L
9	284	multi_trial	0.6	60	24	0	L	L
9	253	multi_trial	0.6	60	25	0	L	L
9	437	multi_trial	0.6	60	26	1	L	L
9	373	multi_trial	0.6	60	27	1	L	L
9	425	multi_trial	0.6	60	28	0	L	L
9	384	multi_trial	0.6	60	29	0	R	L
9	315	multi_trial	0.6	60	30	0	R	L
9	316	multi_trial	0.6	60	31	0	R	L
9	363	multi_trial	0.6	60	32	0	R	L
9	327	multi_trial	0.6	60	33	0	R	L
9	356	multi_trial	0.6	60	34	1	R	L
9	324	multi_trial	0.6	60	35	0	R	L
9	435	multi_trial	0.6	60	36	1	L	L
9	457	multi_trial	0.6	60	37	1	L	L
9	388	multi_trial	0.6	60	38	0	R	L
9	318	multi_trial	0.6	60	39	1	R	L
9	407	multi_trial	0.6	60	40	1	L	L
9	445	multi_trial	0.6	60	41	0	L	L
9	119	multi_trial	0.6	60	42	0	L	L
9	21	multi_trial	0.6	60	43	0	L	L
9	935	multi_trial	0.6	60	44	0	R	L
9	80	multi_trial	0.6	60	45	1	L	L
9	140	multi_trial	0.6	60	46	0	R	L
9	865	multi_trial	0.6	60	47	1	R	L
9	456	multi_trial	0.6	60	48	1	L	L
9	548	multi_trial	0.6	60	49	1	L	L
9	432	multi_trial	0.6	60	50	0	L	L
9	3994	elicit_prevalence	0.6	60	catch1	NA	2	L
9	5847	elicit_prevalence	0.6	60	catch2	NA	1	L
9	7970	elicit_prevalence	0.6	60	catch3	NA	50	L
9	8539	elicit_prevalence	0.6	60	prevalence	NA	70	L
10	1469	multi_trial	0.8	80	1	0	R	L
10	440	multi_trial	0.8	80	2	1	R	L
10	386	multi_trial	0.8	80	3	0	R	L
10	376	multi_trial	0.8	80	4	0	R	L
10	510	multi_trial	0.8	80	5	1	L	L
10	615	multi_trial	0.8	80	6	1	L	L
10	445	multi_trial	0.8	80	7	0	L	L
10	422	multi_trial	0.8	80	8	1	L	L
10	458	multi_trial	0.8	80	9	1	L	L
10	387	multi_trial	0.8	80	10	1	L	L
10	885	multi_trial	0.8	80	11	1	L	L
10	356	multi_trial	0.8	80	12	1	L	L
10	350	multi_trial	0.8	80	13	1	L	L
10	401	multi_trial	0.8	80	14	1	L	L
10	377	multi_trial	0.8	80	15	1	L	L
10	502	multi_trial	0.8	80	16	1	L	L
10	409	multi_trial	0.8	80	17	1	L	L
10	416	multi_trial	0.8	80	18	1	L	L
10	401	multi_trial	0.8	80	19	1	L	L
10	410	multi_trial	0.8	80	20	0	L	L
10	448	multi_trial	0.8	80	21	1	L	L
10	435	multi_trial	0.8	80	22	1	L	L
10	466	multi_trial	0.8	80	23	1	L	L
10	322	multi_trial	0.8	80	24	1	L	L
10	335	multi_trial	0.8	80	25	1	L	L
10	366	multi_trial	0.8	80	26	0	L	L
10	191	multi_trial	0.8	80	27	0	L	L
10	376	multi_trial	0.8	80	28	1	L	L
10	403	multi_trial	0.8	80	29	1	L	L
10	291	multi_trial	0.8	80	30	1	L	L
10	427	multi_trial	0.8	80	31	1	L	L
10	344	multi_trial	0.8	80	32	1	L	L
10	371	multi_trial	0.8	80	33	1	L	L
10	270	multi_trial	0.8	80	34	0	L	L
10	364	multi_trial	0.8	80	35	0	R	L
10	386	multi_trial	0.8	80	36	1	L	L
10	355	multi_trial	0.8	80	37	1	L	L
10	390	multi_trial	0.8	80	38	1	L	L
10	324	multi_trial	0.8	80	39	0	L	L
10	75	multi_trial	0.8	80	40	0	R	L
10	507	multi_trial	0.8	80	41	1	L	L
10	186	multi_trial	0.8	80	42	1	L	L
10	245	multi_trial	0.8	80	43	1	L	L
10	279	multi_trial	0.8	80	44	1	L	L
10	331	multi_trial	0.8	80	45	1	L	L
10	346	multi_trial	0.8	80	46	1	L	L
10	150	multi_trial	0.8	80	47	0	L	L
10	522	multi_trial	0.8	80	48	0	L	L
10	350	multi_trial	0.8	80	49	1	L	L
10	444	multi_trial	0.8	80	50	0	L	L
10	5795	elicit_prevalence	0.8	80	catch1	NA	2	L
10	14205	elicit_prevalence	0.8	80	catch2	NA	2	L
10	3913	elicit_prevalence	0.8	80	catch3	NA	50	L
10	18613	elicit_prevalence	0.8	80	prevalence	NA	70	L
11	1047	multi_trial	0.2	80	1	0	L	R
11	500	multi_trial	0.2	80	2	1	R	R
11	406	multi_trial	0.2	80	3	1	R	R
11	324	multi_trial	0.2	80	4	0	R	R
11	316	multi_trial	0.2	80	5	1	R	R
11	262	multi_trial	0.2	80	6	1	R	R
11	254	multi_trial	0.2	80	7	1	R	R
11	286	multi_trial	0.2	80	8	1	R	R
11	157	multi_trial	0.2	80	9	1	R	R
11	22	multi_trial	0.2	80	10	0	R	R
11	422	multi_trial	0.2	80	11	1	R	R
11	101	multi_trial	0.2	80	12	1	R	R
11	21	multi_trial	0.2	80	13	1	R	R
11	28	multi_trial	0.2	80	14	1	R	R
11	149	multi_trial	0.2	80	15	1	R	R
11	381	multi_trial	0.2	80	16	0	R	R
11	86	multi_trial	0.2	80	17	1	R	R
11	323	multi_trial	0.2	80	18	1	R	R
11	62	multi_trial	0.2	80	19	1	R	R
11	126	multi_trial	0.2	80	20	1	R	R
11	142	multi_trial	0.2	80	21	1	R	R
11	86	multi_trial	0.2	80	22	1	R	R
11	150	multi_trial	0.2	80	23	1	R	R
11	110	multi_trial	0.2	80	24	0	R	R
11	38	multi_trial	0.2	80	25	1	R	R
11	5	multi_trial	0.2	80	26	1	R	R
11	195	multi_trial	0.2	80	27	0	R	R
11	214	multi_trial	0.2	80	28	1	R	R
11	229	multi_trial	0.2	80	29	1	R	R
11	230	multi_trial	0.2	80	30	0	R	R
11	199	multi_trial	0.2	80	31	1	R	R
11	118	multi_trial	0.2	80	32	1	R	R
11	174	multi_trial	0.2	80	33	1	R	R
11	174	multi_trial	0.2	80	34	1	R	R
11	14	multi_trial	0.2	80	35	0	R	R
11	93	multi_trial	0.2	80	36	1	R	R
11	54	multi_trial	0.2	80	37	1	R	R
11	221	multi_trial	0.2	80	38	1	R	R
11	246	multi_trial	0.2	80	39	1	R	R
11	110	multi_trial	0.2	80	40	1	R	R
11	6	multi_trial	0.2	80	41	1	R	R
11	61	multi_trial	0.2	80	42	1	R	R
11	77	multi_trial	0.2	80	43	1	R	R
11	277	multi_trial	0.2	80	44	1	R	R
11	150	multi_trial	0.2	80	45	1	R	R
11	87	multi_trial	0.2	80	46	1	R	R
11	126	multi_trial	0.2	80	47	0	R	R
11	110	multi_trial	0.2	80	48	0	R	R
11	9	multi_trial	0.2	80	49	1	R	R
11	10	multi_trial	0.2	80	50	0	R	R
11	6155	elicit_prevalence	0.2	80	catch1	NA	2	R
11	9033	elicit_prevalence	0.2	80	catch2	NA	2	R
11	2151	elicit_prevalence	0.2	80	catch3	NA	50	R
11	4148	elicit_prevalence	0.2	80	prevalence	NA	50	R
12	957	multi_trial	0.4	60	1	1	L	R
12	627	multi_trial	0.4	60	2	0	R	R
12	507	multi_trial	0.4	60	3	0	R	R
12	715	multi_trial	0.4	60	4	1	R	R
12	620	multi_trial	0.4	60	5	1	R	R
12	699	multi_trial	0.4	60	6	1	L	R
12	605	multi_trial	0.4	60	7	1	L	R
12	554	multi_trial	0.4	60	8	1	R	R
12	516	multi_trial	0.4	60	9	0	R	R
12	444	multi_trial	0.4	60	10	1	R	R
12	548	multi_trial	0.4	60	11	0	L	R
12	443	multi_trial	0.4	60	12	0	L	R
12	453	multi_trial	0.4	60	13	0	L	R
12	604	multi_trial	0.4	60	14	0	L	R
12	484	multi_trial	0.4	60	15	0	L	R
12	549	multi_trial	0.4	60	16	0	L	R
12	732	multi_trial	0.4	60	17	1	L	R
12	468	multi_trial	0.4	60	18	1	L	R
12	446	multi_trial	0.4	60	19	0	L	R
12	644	multi_trial	0.4	60	20	0	R	R
12	668	multi_trial	0.4	60	21	0	R	R
12	557	multi_trial	0.4	60	22	0	L	R
12	572	multi_trial	0.4	60	23	1	R	R
12	788	multi_trial	0.4	60	24	0	L	R
12	1268	multi_trial	0.4	60	25	1	L	R
12	532	multi_trial	0.4	60	26	1	L	R
12	516	multi_trial	0.4	60	27	1	L	R
12	461	multi_trial	0.4	60	28	0	L	R
12	476	multi_trial	0.4	60	29	0	R	R
12	324	multi_trial	0.4	60	30	0	L	R
12	459	multi_trial	0.4	60	31	1	R	R
12	428	multi_trial	0.4	60	32	1	R	R
12	419	multi_trial	0.4	60	33	0	L	R
12	404	multi_trial	0.4	60	34	1	R	R
12	452	multi_trial	0.4	60	35	0	L	R
12	459	multi_trial	0.4	60	36	0	L	R
12	652	multi_trial	0.4	60	37	1	L	R
12	581	multi_trial	0.4	60	38	1	L	R
12	677	multi_trial	0.4	60	39	0	L	R
12	788	multi_trial	0.4	60	40	1	R	R
12	884	multi_trial	0.4	60	41	1	R	R
12	524	multi_trial	0.4	60	42	0	R	R
12	644	multi_trial	0.4	60	43	0	L	R
12	540	multi_trial	0.4	60	44	1	R	R
12	476	multi_trial	0.4	60	45	0	L	R
12	460	multi_trial	0.4	60	46	0	L	R
12	469	multi_trial	0.4	60	47	1	R	R
12	573	multi_trial	0.4	60	48	1	L	R
12	580	multi_trial	0.4	60	49	0	R	R
12	1348	multi_trial	0.4	60	50	1	L	R
12	4525	elicit_prevalence	0.4	60	catch1	NA	2	R
12	8441	elicit_prevalence	0.4	60	catch2	NA	2	R
12	6057	elicit_prevalence	0.4	60	catch3	NA	50	R
12	8285	elicit_prevalence	0.4	60	prevalence	NA	50	R
13	218	multi_trial	0.4	60	1	0	R	R
13	173	multi_trial	0.4	60	3	1	R	R
13	115	multi_trial	0.4	60	5	1	R	R
13	145	multi_trial	0.4	60	7	0	R	R
13	103	multi_trial	0.4	60	8	1	R	R
13	55	multi_trial	0.4	60	9	0	R	R
13	57	multi_trial	0.4	60	11	1	R	R
13	122	multi_trial	0.4	60	12	0	R	R
13	105	multi_trial	0.4	60	13	1	R	R
13	67	multi_trial	0.4	60	14	1	R	R
13	1396	multi_trial	0.4	60	18	1	R	R
13	129	multi_trial	0.4	60	19	1	R	R
13	170	multi_trial	0.4	60	20	1	R	R
13	112	multi_trial	0.4	60	21	0	R	R
13	79	multi_trial	0.4	60	22	0	R	R
13	383	multi_trial	0.4	60	23	1	R	R
13	234	multi_trial	0.4	60	24	1	R	R
13	177	multi_trial	0.4	60	25	0	R	R
13	61	multi_trial	0.4	60	26	1	R	R
13	180	multi_trial	0.4	60	27	1	R	R
13	211	multi_trial	0.4	60	28	0	R	R
13	168	multi_trial	0.4	60	29	0	R	R
13	56	multi_trial	0.4	60	30	1	R	R
13	46	multi_trial	0.4	60	31	1	R	R
13	5	multi_trial	0.4	60	32	1	R	R
13	31	multi_trial	0.4	60	33	0	R	R
13	64	multi_trial	0.4	60	34	0	R	R
13	54	multi_trial	0.4	60	35	1	R	R
13	169	multi_trial	0.4	60	36	1	R	R
13	193	multi_trial	0.4	60	37	0	R	R
13	70	multi_trial	0.4	60	38	1	R	R
13	71	multi_trial	0.4	60	39	1	R	R
13	42	multi_trial	0.4	60	40	1	R	R
13	136	multi_trial	0.4	60	41	1	R	R
13	38	multi_trial	0.4	60	42	0	R	R
13	97	multi_trial	0.4	60	43	0	R	R
13	166	multi_trial	0.4	60	44	0	R	R
13	8	multi_trial	0.4	60	45	0	R	R
13	209	multi_trial	0.4	60	46	1	R	R
13	134	multi_trial	0.4	60	47	1	R	R
13	161	multi_trial	0.4	60	48	1	R	R
13	126	multi_trial	0.4	60	49	1	R	R
13	92	multi_trial	0.4	60	50	0	R	R
13	2927	elicit_prevalence	0.4	60	catch1	NA	2	R
13	23309	elicit_prevalence	0.4	60	catch2	NA	10	R
13	18579	elicit_prevalence	0.4	60	catch3	NA	60	R
13	4618	elicit_prevalence	0.4	60	prevalence	NA	50	R
14	3171	multi_trial	0.4	60	1	0	L	R
14	493	multi_trial	0.4	60	2	1	R	R
14	316	multi_trial	0.4	60	3	0	R	R
14	214	multi_trial	0.4	60	4	1	R	R
14	358	multi_trial	0.4	60	5	1	R	R
14	94	multi_trial	0.4	60	6	0	R	R
14	366	multi_trial	0.4	60	7	1	R	R
14	270	multi_trial	0.4	60	8	1	R	R
14	294	multi_trial	0.4	60	9	0	L	R
14	350	multi_trial	0.4	60	10	1	L	R
14	374	multi_trial	0.4	60	11	1	L	R
14	158	multi_trial	0.4	60	12	0	L	R
14	149	multi_trial	0.4	60	13	1	R	R
14	46	multi_trial	0.4	60	14	0	R	R
14	534	multi_trial	0.4	60	15	0	R	R
14	110	multi_trial	0.4	60	16	0	L	R
14	30	multi_trial	0.4	60	17	1	R	R
14	670	multi_trial	0.4	60	18	0	L	R
14	118	multi_trial	0.4	60	19	0	L	R
14	54	multi_trial	0.4	60	20	1	R	R
14	181	multi_trial	0.4	60	21	1	R	R
14	30	multi_trial	0.4	60	22	1	R	R
14	14	multi_trial	0.4	60	23	1	R	R
14	15	multi_trial	0.4	60	24	1	R	R
14	174	multi_trial	0.4	60	25	0	R	R
14	133	multi_trial	0.4	60	26	1	R	R
14	45	multi_trial	0.4	60	27	1	R	R
14	148	multi_trial	0.4	60	28	1	R	R
14	157	multi_trial	0.4	60	29	0	R	R
14	190	multi_trial	0.4	60	30	1	R	R
14	142	multi_trial	0.4	60	31	0	R	R
14	142	multi_trial	0.4	60	32	1	R	R
14	6	multi_trial	0.4	60	33	0	R	R
14	141	multi_trial	0.4	60	34	1	R	R
14	15	multi_trial	0.4	60	35	1	R	R
14	46	multi_trial	0.4	60	36	1	R	R
14	190	multi_trial	0.4	60	37	0	R	R
14	94	multi_trial	0.4	60	38	0	R	R
14	30	multi_trial	0.4	60	39	1	R	R
14	126	multi_trial	0.4	60	40	0	R	R
14	166	multi_trial	0.4	60	41	1	R	R
14	86	multi_trial	0.4	60	42	0	R	R
14	86	multi_trial	0.4	60	43	0	R	R
14	125	multi_trial	0.4	60	44	0	R	R
14	61	multi_trial	0.4	60	45	1	R	R
14	150	multi_trial	0.4	60	46	0	R	R
14	166	multi_trial	0.4	60	47	0	R	R
14	190	multi_trial	0.4	60	48	0	R	R
14	102	multi_trial	0.4	60	49	1	R	R
14	182	multi_trial	0.4	60	50	0	R	R
14	2368	elicit_prevalence	0.4	60	catch1	NA	2	R
14	3571	elicit_prevalence	0.4	60	catch2	NA	2	R
14	2696	elicit_prevalence	0.4	60	catch3	NA	50	R
14	5600	elicit_prevalence	0.4	60	prevalence	NA	50	R
15	2745	multi_trial	0.4	60	1	0	R	R
15	1233	multi_trial	0.4	60	2	1	R	R
15	476	multi_trial	0.4	60	3	0	L	R
15	561	multi_trial	0.4	60	4	0	L	R
15	420	multi_trial	0.4	60	5	0	L	R
15	404	multi_trial	0.4	60	6	0	R	R
15	482	multi_trial	0.4	60	7	0	L	R
15	491	multi_trial	0.4	60	8	0	L	R
15	614	multi_trial	0.4	60	9	1	L	R
15	565	multi_trial	0.4	60	10	1	L	R
15	409	multi_trial	0.4	60	11	0	L	R
15	184	multi_trial	0.4	60	12	1	R	R
15	460	multi_trial	0.4	60	13	0	R	R
15	617	multi_trial	0.4	60	14	0	L	R
15	529	multi_trial	0.4	60	15	1	R	R
15	388	multi_trial	0.4	60	16	0	R	R
15	465	multi_trial	0.4	60	17	0	L	R
15	776	multi_trial	0.4	60	18	1	R	R
15	511	multi_trial	0.4	60	19	1	R	R
15	537	multi_trial	0.4	60	20	1	R	R
15	737	multi_trial	0.4	60	21	0	L	R
15	525	multi_trial	0.4	60	22	0	L	R
15	461	multi_trial	0.4	60	23	0	R	R
15	1295	multi_trial	0.4	60	24	1	L	R
15	543	multi_trial	0.4	60	25	1	L	R
15	496	multi_trial	0.4	60	26	1	L	R
15	765	multi_trial	0.4	60	27	0	L	R
15	559	multi_trial	0.4	60	28	1	L	R
15	549	multi_trial	0.4	60	29	1	L	R
15	551	multi_trial	0.4	60	30	0	L	R
15	385	multi_trial	0.4	60	31	0	R	R
15	464	multi_trial	0.4	60	32	1	R	R
15	546	multi_trial	0.4	60	33	0	R	R
15	589	multi_trial	0.4	60	34	0	L	R
15	490	multi_trial	0.4	60	35	0	R	R
15	595	multi_trial	0.4	60	36	1	R	R
15	435	multi_trial	0.4	60	37	1	R	R
15	613	multi_trial	0.4	60	38	1	R	R
15	686	multi_trial	0.4	60	39	1	R	R
15	620	multi_trial	0.4	60	40	1	R	R
15	776	multi_trial	0.4	60	41	1	R	R
15	1228	multi_trial	0.4	60	42	1	L	R
15	1003	multi_trial	0.4	60	43	1	R	R
15	507	multi_trial	0.4	60	44	1	R	R
15	460	multi_trial	0.4	60	45	1	R	R
15	472	multi_trial	0.4	60	46	0	R	R
15	1215	multi_trial	0.4	60	47	1	L	R
15	468	multi_trial	0.4	60	48	0	L	R
15	742	multi_trial	0.4	60	49	1	L	R
15	486	multi_trial	0.4	60	50	1	L	R
15	5218	elicit_prevalence	0.4	60	catch1	NA	2	R
15	14818	elicit_prevalence	0.4	60	catch2	NA	2	R
15	4606	elicit_prevalence	0.4	60	catch3	NA	50	R
15	12642	elicit_prevalence	0.4	60	prevalence	NA	50	R
16	1730	multi_trial	0.6	60	1	1	L	L
16	2000	multi_trial	0.6	60	2	-1	timeout	L
16	854	multi_trial	0.6	60	3	0	R	L
16	1167	multi_trial	0.6	60	4	0	R	L
16	484	multi_trial	0.6	60	5	1	L	L
16	829	multi_trial	0.6	60	6	1	L	L
16	641	multi_trial	0.6	60	7	1	L	L
16	805	multi_trial	0.6	60	8	0	L	L
16	597	multi_trial	0.6	60	9	0	R	L
16	457	multi_trial	0.6	60	10	0	R	L
16	461	multi_trial	0.6	60	11	1	L	L
16	865	multi_trial	0.6	60	12	0	R	L
16	484	multi_trial	0.6	60	13	1	L	L
16	864	multi_trial	0.6	60	14	1	R	L
16	553	multi_trial	0.6	60	15	1	R	L
16	624	multi_trial	0.6	60	16	1	R	L
16	751	multi_trial	0.6	60	17	0	R	L
16	952	multi_trial	0.6	60	18	0	R	L
16	459	multi_trial	0.6	60	19	1	L	L
16	858	multi_trial	0.6	60	20	1	L	L
16	472	multi_trial	0.6	60	21	1	L	L
16	650	multi_trial	0.6	60	22	0	L	L
16	447	multi_trial	0.6	60	23	0	R	L
16	904	multi_trial	0.6	60	24	0	L	L
16	450	multi_trial	0.6	60	25	1	L	L
16	531	multi_trial	0.6	60	26	1	L	L
16	512	multi_trial	0.6	60	27	0	L	L
16	467	multi_trial	0.6	60	28	0	R	L
16	115	multi_trial	0.6	60	29	0	R	L
16	525	multi_trial	0.6	60	30	1	R	L
16	460	multi_trial	0.6	60	31	0	R	L
16	599	multi_trial	0.6	60	32	0	R	L
16	448	multi_trial	0.6	60	33	0	L	L
16	880	multi_trial	0.6	60	34	0	L	L
16	474	multi_trial	0.6	60	35	1	R	L
16	460	multi_trial	0.6	60	36	1	R	L
16	552	multi_trial	0.6	60	37	1	R	L
16	504	multi_trial	0.6	60	38	1	R	L
16	536	multi_trial	0.6	60	39	0	R	L
16	510	multi_trial	0.6	60	40	1	L	L
16	497	multi_trial	0.6	60	41	0	L	L
16	553	multi_trial	0.6	60	42	1	R	L
16	370	multi_trial	0.6	60	43	0	R	L
16	655	multi_trial	0.6	60	44	0	L	L
16	602	multi_trial	0.6	60	45	0	R	L
16	525	multi_trial	0.6	60	46	0	R	L
16	491	multi_trial	0.6	60	47	0	L	L
16	472	multi_trial	0.6	60	48	0	L	L
16	838	multi_trial	0.6	60	49	0	R	L
16	455	multi_trial	0.6	60	50	0	L	L
16	5820	elicit_prevalence	0.6	60	catch1	NA	2	L
16	9375	elicit_prevalence	0.6	60	catch2	NA	1	L
16	4631	elicit_prevalence	0.6	60	catch3	NA	50	L
16	7167	elicit_prevalence	0.6	60	prevalence	NA	30	L
17	980	multi_trial	0.8	80	1	0	L	L
17	444	multi_trial	0.8	80	2	1	L	L
17	412	multi_trial	0.8	80	3	1	L	L
17	296	multi_trial	0.8	80	4	0	R	L
17	335	multi_trial	0.8	80	5	1	R	L
17	416	multi_trial	0.8	80	6	1	L	L
17	444	multi_trial	0.8	80	7	0	R	L
17	376	multi_trial	0.8	80	8	1	L	L
17	296	multi_trial	0.8	80	9	0	R	L
17	396	multi_trial	0.8	80	10	0	L	L
17	316	multi_trial	0.8	80	11	1	R	L
17	256	multi_trial	0.8	80	12	1	L	L
17	301	multi_trial	0.8	80	13	0	R	L
17	316	multi_trial	0.8	80	14	0	L	L
17	296	multi_trial	0.8	80	15	1	L	L
17	416	multi_trial	0.8	80	16	0	L	L
17	436	multi_trial	0.8	80	17	1	L	L
17	375	multi_trial	0.8	80	18	1	L	L
17	424	multi_trial	0.8	80	19	1	L	L
17	516	multi_trial	0.8	80	20	0	R	L
17	368	multi_trial	0.8	80	21	0	R	L
17	404	multi_trial	0.8	80	22	0	R	L
17	436	multi_trial	0.8	80	23	0	L	L
17	480	multi_trial	0.8	80	24	0	R	L
17	532	multi_trial	0.8	80	25	1	L	L
17	444	multi_trial	0.8	80	26	0	R	L
17	296	multi_trial	0.8	80	27	0	R	L
17	415	multi_trial	0.8	80	28	1	L	L
17	276	multi_trial	0.8	80	29	1	L	L
17	272	multi_trial	0.8	80	30	1	L	L
17	264	multi_trial	0.8	80	31	1	L	L
17	360	multi_trial	0.8	80	32	0	R	L
17	304	multi_trial	0.8	80	33	1	L	L
17	416	multi_trial	0.8	80	34	0	R	L
17	384	multi_trial	0.8	80	35	1	L	L
17	484	multi_trial	0.8	80	36	1	L	L
17	436	multi_trial	0.8	80	37	1	L	L
17	464	multi_trial	0.8	80	38	1	L	L
17	456	multi_trial	0.8	80	39	0	L	L
17	336	multi_trial	0.8	80	40	1	L	L
17	284	multi_trial	0.8	80	41	1	L	L
17	344	multi_trial	0.8	80	42	0	L	L
17	184	multi_trial	0.8	80	43	1	L	L
17	584	multi_trial	0.8	80	44	0	R	L
17	160	multi_trial	0.8	80	45	0	L	L
17	476	multi_trial	0.8	80	46	0	R	L
17	416	multi_trial	0.8	80	47	1	L	L
17	236	multi_trial	0.8	80	48	1	L	L
17	244	multi_trial	0.8	80	49	1	L	L
17	348	multi_trial	0.8	80	50	1	L	L
17	4436	elicit_prevalence	0.8	80	catch1	NA	2	L
17	13305	elicit_prevalence	0.8	80	catch2	NA	2	L
17	2945	elicit_prevalence	0.8	80	catch3	NA	50	L
17	5137	elicit_prevalence	0.8	80	prevalence	NA	75	L
18	1197	multi_trial	0.2	80	1	0	R	R
18	438	multi_trial	0.2	80	2	1	R	R
18	405	multi_trial	0.2	80	3	0	R	R
18	423	multi_trial	0.2	80	4	0	R	R
18	309	multi_trial	0.2	80	5	1	R	R
18	358	multi_trial	0.2	80	6	1	R	R
18	213	multi_trial	0.2	80	7	1	R	R
18	261	multi_trial	0.2	80	8	1	R	R
18	277	multi_trial	0.2	80	9	0	R	R
18	197	multi_trial	0.2	80	10	1	R	R
18	12	multi_trial	0.2	80	11	1	R	R
18	144	multi_trial	0.2	80	12	1	R	R
18	227	multi_trial	0.2	80	13	0	R	R
18	176	multi_trial	0.2	80	14	1	R	R
18	229	multi_trial	0.2	80	15	1	R	R
18	182	multi_trial	0.2	80	16	1	R	R
18	165	multi_trial	0.2	80	17	0	R	R
18	198	multi_trial	0.2	80	18	1	R	R
18	214	multi_trial	0.2	80	19	1	R	R
18	166	multi_trial	0.2	80	20	1	R	R
18	134	multi_trial	0.2	80	21	1	R	R
18	181	multi_trial	0.2	80	22	1	R	R
18	133	multi_trial	0.2	80	23	1	R	R
18	230	multi_trial	0.2	80	24	1	R	R
18	182	multi_trial	0.2	80	25	0	R	R
18	230	multi_trial	0.2	80	26	1	R	R
18	149	multi_trial	0.2	80	27	1	R	R
18	37	multi_trial	0.2	80	28	0	R	R
18	182	multi_trial	0.2	80	29	1	R	R
18	20	multi_trial	0.2	80	30	1	R	R
18	37	multi_trial	0.2	80	31	1	R	R
18	645	multi_trial	0.2	80	32	1	R	R
18	181	multi_trial	0.2	80	33	1	R	R
18	229	multi_trial	0.2	80	34	1	R	R
18	134	multi_trial	0.2	80	35	1	R	R
18	166	multi_trial	0.2	80	36	1	R	R
18	212	multi_trial	0.2	80	37	1	R	R
18	118	multi_trial	0.2	80	38	0	R	R
18	261	multi_trial	0.2	80	39	1	R	R
18	230	multi_trial	0.2	80	40	1	R	R
18	294	multi_trial	0.2	80	41	1	R	R
18	198	multi_trial	0.2	80	42	1	R	R
18	245	multi_trial	0.2	80	43	1	R	R
18	230	multi_trial	0.2	80	44	0	R	R
18	326	multi_trial	0.2	80	45	1	R	R
18	118	multi_trial	0.2	80	46	1	R	R
18	150	multi_trial	0.2	80	47	1	R	R
18	502	multi_trial	0.2	80	48	1	R	R
18	229	multi_trial	0.2	80	49	1	R	R
18	102	multi_trial	0.2	80	50	1	R	R
18	3343	elicit_prevalence	0.2	80	catch1	NA	2	R
18	7714	elicit_prevalence	0.2	80	catch2	NA	1	R
18	2839	elicit_prevalence	0.2	80	catch3	NA	50	R
18	12970	elicit_prevalence	0.2	80	prevalence	NA	19	R
19	3482	multi_trial	0.2	80	1	1	R	R
19	1437	multi_trial	0.2	80	2	1	R	R
19	1443	multi_trial	0.2	80	3	0	L	R
19	1191	multi_trial	0.2	80	4	1	R	R
19	870	multi_trial	0.2	80	5	1	R	R
19	982	multi_trial	0.2	80	6	1	R	R
19	741	multi_trial	0.2	80	7	1	R	R
19	623	multi_trial	0.2	80	8	1	R	R
19	597	multi_trial	0.2	80	9	1	R	R
19	576	multi_trial	0.2	80	10	0	R	R
19	746	multi_trial	0.2	80	11	1	R	R
19	652	multi_trial	0.2	80	12	0	R	R
19	519	multi_trial	0.2	80	13	1	R	R
19	981	multi_trial	0.2	80	14	0	R	R
19	533	multi_trial	0.2	80	15	1	R	R
19	1623	multi_trial	0.2	80	16	0	L	R
19	702	multi_trial	0.2	80	17	1	R	R
19	616	multi_trial	0.2	80	18	1	R	R
19	601	multi_trial	0.2	80	19	0	L	R
19	543	multi_trial	0.2	80	20	1	R	R
19	728	multi_trial	0.2	80	21	1	R	R
19	717	multi_trial	0.2	80	22	1	L	R
19	1116	multi_trial	0.2	80	23	1	R	R
19	746	multi_trial	0.2	80	24	1	R	R
19	474	multi_trial	0.2	80	25	1	R	R
19	495	multi_trial	0.2	80	26	1	R	R
19	473	multi_trial	0.2	80	27	0	L	R
19	494	multi_trial	0.2	80	28	1	R	R
19	449	multi_trial	0.2	80	29	1	R	R
19	587	multi_trial	0.2	80	30	0	R	R
19	423	multi_trial	0.2	80	31	1	R	R
19	468	multi_trial	0.2	80	32	1	R	R
19	530	multi_trial	0.2	80	33	0	L	R
19	429	multi_trial	0.2	80	34	0	R	R
19	389	multi_trial	0.2	80	35	1	R	R
19	636	multi_trial	0.2	80	36	0	L	R
19	492	multi_trial	0.2	80	37	1	R	R
19	432	multi_trial	0.2	80	38	1	R	R
19	432	multi_trial	0.2	80	39	1	R	R
19	472	multi_trial	0.2	80	40	0	R	R
19	296	multi_trial	0.2	80	41	1	R	R
19	567	multi_trial	0.2	80	42	1	R	R
19	549	multi_trial	0.2	80	43	1	L	R
19	492	multi_trial	0.2	80	44	1	R	R
19	544	multi_trial	0.2	80	45	1	R	R
19	450	multi_trial	0.2	80	46	0	R	R
19	363	multi_trial	0.2	80	47	1	R	R
19	657	multi_trial	0.2	80	48	1	R	R
19	521	multi_trial	0.2	80	49	1	L	R
19	463	multi_trial	0.2	80	50	1	R	R
19	8393	elicit_prevalence	0.2	80	catch1	NA	2	R
19	6894	elicit_prevalence	0.2	80	catch2	NA	2	R
19	4996	elicit_prevalence	0.2	80	catch3	NA	50	R
19	15632	elicit_prevalence	0.2	80	prevalence	NA	10	R
20	1348	multi_trial	0.8	80	1	1	L	L
20	579	multi_trial	0.8	80	2	0	R	L
20	728	multi_trial	0.8	80	3	0	R	L
20	645	multi_trial	0.8	80	4	0	L	L
20	929	multi_trial	0.8	80	5	1	L	L
20	956	multi_trial	0.8	80	6	0	R	L
20	599	multi_trial	0.8	80	7	0	R	L
20	607	multi_trial	0.8	80	8	1	L	L
20	463	multi_trial	0.8	80	9	1	L	L
20	516	multi_trial	0.8	80	10	0	R	L
20	527	multi_trial	0.8	80	11	0	L	L
20	665	multi_trial	0.8	80	12	1	L	L
20	622	multi_trial	0.8	80	13	1	L	L
20	465	multi_trial	0.8	80	14	1	R	L
20	613	multi_trial	0.8	80	15	0	R	L
20	475	multi_trial	0.8	80	16	0	R	L
20	478	multi_trial	0.8	80	17	1	R	L
20	486	multi_trial	0.8	80	18	1	L	L
20	862	multi_trial	0.8	80	19	0	R	L
20	446	multi_trial	0.8	80	20	0	R	L
20	896	multi_trial	0.8	80	21	1	R	L
20	568	multi_trial	0.8	80	22	1	L	L
20	644	multi_trial	0.8	80	23	1	L	L
20	431	multi_trial	0.8	80	24	0	R	L
20	1309	multi_trial	0.8	80	25	0	R	L
20	672	multi_trial	0.8	80	26	0	R	L
20	922	multi_trial	0.8	80	27	0	R	L
20	426	multi_trial	0.8	80	28	1	L	L
20	704	multi_trial	0.8	80	29	0	L	L
20	818	multi_trial	0.8	80	30	0	R	L
20	439	multi_trial	0.8	80	31	0	R	L
20	480	multi_trial	0.8	80	32	1	L	L
20	474	multi_trial	0.8	80	33	1	L	L
20	471	multi_trial	0.8	80	34	0	R	L
20	641	multi_trial	0.8	80	35	1	L	L
20	522	multi_trial	0.8	80	36	1	L	L
20	492	multi_trial	0.8	80	37	1	L	L
20	491	multi_trial	0.8	80	38	0	R	L
20	528	multi_trial	0.8	80	39	1	L	L
20	472	multi_trial	0.8	80	40	1	L	L
20	484	multi_trial	0.8	80	41	1	R	L
20	489	multi_trial	0.8	80	42	1	R	L
20	471	multi_trial	0.8	80	43	1	R	L
20	522	multi_trial	0.8	80	44	0	R	L
20	703	multi_trial	0.8	80	45	1	L	L
20	582	multi_trial	0.8	80	46	1	L	L
20	715	multi_trial	0.8	80	47	1	L	L
20	598	multi_trial	0.8	80	48	0	R	L
20	585	multi_trial	0.8	80	49	0	R	L
20	501	multi_trial	0.8	80	50	0	L	L
20	5764	elicit_prevalence	0.8	80	catch1	NA	2	L
20	17312	elicit_prevalence	0.8	80	catch2	NA	2	L
20	4774	elicit_prevalence	0.8	80	catch3	NA	50	L
20	12389	elicit_prevalence	0.8	80	prevalence	NA	60	L
21	2178	multi_trial	0.6	60	1	1	L	L
21	418	multi_trial	0.6	60	2	0	R	L
21	365	multi_trial	0.6	60	3	0	R	L
21	397	multi_trial	0.6	60	4	1	R	L
21	413	multi_trial	0.6	60	5	0	R	L
21	341	multi_trial	0.6	60	6	1	R	L
21	405	multi_trial	0.6	60	7	0	L	L
21	397	multi_trial	0.6	60	8	0	R	L
21	16	multi_trial	0.6	60	9	1	R	L
21	37	multi_trial	0.6	60	10	0	R	L
21	298	multi_trial	0.6	60	11	0	R	L
21	76	multi_trial	0.6	60	12	0	R	L
21	135	multi_trial	0.6	60	13	0	R	L
21	44	multi_trial	0.6	60	14	0	R	L
21	32	multi_trial	0.6	60	15	1	R	L
21	458	multi_trial	0.6	60	16	0	R	L
21	365	multi_trial	0.6	60	17	1	R	L
21	397	multi_trial	0.6	60	18	0	R	L
21	269	multi_trial	0.6	60	19	0	R	L
21	334	multi_trial	0.6	60	20	1	R	L
21	413	multi_trial	0.6	60	21	0	R	L
21	366	multi_trial	0.6	60	22	0	R	L
21	518	multi_trial	0.6	60	23	1	R	L
21	389	multi_trial	0.6	60	24	1	R	L
21	397	multi_trial	0.6	60	25	0	R	L
21	383	multi_trial	0.6	60	26	1	R	L
21	405	multi_trial	0.6	60	27	0	R	L
21	406	multi_trial	0.6	60	28	0	R	L
21	381	multi_trial	0.6	60	29	1	R	L
21	430	multi_trial	0.6	60	30	1	R	L
21	1149	multi_trial	0.6	60	31	0	R	L
21	422	multi_trial	0.6	60	32	1	R	L
21	469	multi_trial	0.6	60	33	1	R	L
21	509	multi_trial	0.6	60	34	0	R	L
21	462	multi_trial	0.6	60	35	0	L	L
21	414	multi_trial	0.6	60	36	1	R	L
21	236	multi_trial	0.6	60	37	0	R	L
21	390	multi_trial	0.6	60	38	1	R	L
21	413	multi_trial	0.6	60	39	0	R	L
21	238	multi_trial	0.6	60	40	0	R	L
21	205	multi_trial	0.6	60	41	1	R	L
21	486	multi_trial	0.6	60	42	0	R	L
21	413	multi_trial	0.6	60	43	0	R	L
21	341	multi_trial	0.6	60	44	0	R	L
21	389	multi_trial	0.6	60	45	0	R	L
21	397	multi_trial	0.6	60	46	1	R	L
21	429	multi_trial	0.6	60	47	1	R	L
21	509	multi_trial	0.6	60	48	0	R	L
21	645	multi_trial	0.6	60	49	0	R	L
21	598	multi_trial	0.6	60	50	0	R	L
21	5667	elicit_prevalence	0.6	60	catch1	NA	2	L
21	3702	elicit_prevalence	0.6	60	catch2	NA	2	L
21	2442	elicit_prevalence	0.6	60	catch3	NA	50	L
21	4113	elicit_prevalence	0.6	60	prevalence	NA	50	L
22	1396	multi_trial	0.6	60	1	1	L	L
22	82	multi_trial	0.6	60	2	0	R	L
22	68	multi_trial	0.6	60	3	1	L	L
22	118	multi_trial	0.6	60	4	1	L	L
22	40	multi_trial	0.6	60	5	1	L	L
22	60	multi_trial	0.6	60	6	1	L	L
22	212	multi_trial	0.6	60	7	1	L	L
22	26	multi_trial	0.6	60	8	0	L	L
22	179	multi_trial	0.6	60	9	1	L	L
22	201	multi_trial	0.6	60	10	1	L	L
22	97	multi_trial	0.6	60	11	1	L	L
22	241	multi_trial	0.6	60	12	0	L	L
22	127	multi_trial	0.6	60	13	0	L	L
22	138	multi_trial	0.6	60	14	1	L	L
22	113	multi_trial	0.6	60	15	1	L	L
22	191	multi_trial	0.6	60	16	0	L	L
22	165	multi_trial	0.6	60	17	1	L	L
22	149	multi_trial	0.6	60	18	0	L	L
22	149	multi_trial	0.6	60	19	0	L	L
22	114	multi_trial	0.6	60	20	1	L	L
22	140	multi_trial	0.6	60	21	1	L	L
22	101	multi_trial	0.6	60	22	1	L	L
22	116	multi_trial	0.6	60	23	0	L	L
22	190	multi_trial	0.6	60	24	0	L	L
22	168	multi_trial	0.6	60	25	0	L	L
22	175	multi_trial	0.6	60	26	0	L	L
22	88	multi_trial	0.6	60	27	0	R	L
22	477	multi_trial	0.6	60	28	1	L	L
22	62	multi_trial	0.6	60	29	0	L	L
22	118	multi_trial	0.6	60	30	1	R	L
22	150	multi_trial	0.6	60	31	1	R	L
22	89	multi_trial	0.6	60	32	1	R	L
22	110	multi_trial	0.6	60	33	0	R	L
22	467	multi_trial	0.6	60	34	1	L	L
22	170	multi_trial	0.6	60	35	0	L	L
22	42	multi_trial	0.6	60	36	1	R	L
22	125	multi_trial	0.6	60	37	0	R	L
22	105	multi_trial	0.6	60	38	1	L	L
22	35	multi_trial	0.6	60	39	1	L	L
22	54	multi_trial	0.6	60	40	0	L	L
22	8	multi_trial	0.6	60	41	0	L	L
22	168	multi_trial	0.6	60	42	0	R	L
22	449	multi_trial	0.6	60	43	1	L	L
22	178	multi_trial	0.6	60	44	1	L	L
22	142	multi_trial	0.6	60	45	0	L	L
22	198	multi_trial	0.6	60	46	0	L	L
22	120	multi_trial	0.6	60	47	1	L	L
22	134	multi_trial	0.6	60	48	1	L	L
22	23	multi_trial	0.6	60	49	1	L	L
22	133	multi_trial	0.6	60	50	1	L	L
22	5230	elicit_prevalence	0.6	60	catch1	NA	2	L
22	4456	elicit_prevalence	0.6	60	catch2	NA	3	L
22	2264	elicit_prevalence	0.6	60	catch3	NA	50	L
22	4724	elicit_prevalence	0.6	60	prevalence	NA	50	L
23	629	multi_trial	0.4	60	2	1	R	R
23	534	multi_trial	0.4	60	3	0	R	R
23	966	multi_trial	0.4	60	4	1	R	R
23	486	multi_trial	0.4	60	5	0	L	R
23	582	multi_trial	0.4	60	6	1	L	R
23	583	multi_trial	0.4	60	7	1	R	R
23	487	multi_trial	0.4	60	8	1	L	R
23	501	multi_trial	0.4	60	9	0	L	R
23	535	multi_trial	0.4	60	10	0	R	R
23	550	multi_trial	0.4	60	11	0	R	R
23	358	multi_trial	0.4	60	12	0	R	R
23	247	multi_trial	0.4	60	13	1	R	R
23	1428	multi_trial	0.4	60	14	1	L	R
23	615	multi_trial	0.4	60	15	0	L	R
23	4000	multi_trial	0.4	60	16	-1	timeout	R
23	4000	multi_trial	0.4	60	17	-1	timeout	R
23	1839	multi_trial	0.4	60	18	1	R	R
23	1078	multi_trial	0.4	60	19	0	L	R
23	4000	multi_trial	0.4	60	20	-1	timeout	R
23	1229	multi_trial	0.4	60	21	1	L	R
23	918	multi_trial	0.4	60	22	0	R	R
23	1142	multi_trial	0.4	60	23	1	R	R
23	7	multi_trial	0.4	60	24	1	R	R
23	134	multi_trial	0.4	60	25	0	L	R
23	549	multi_trial	0.4	60	26	0	L	R
23	727	multi_trial	0.4	60	27	1	R	R
23	518	multi_trial	0.4	60	28	0	R	R
23	519	multi_trial	0.4	60	29	1	R	R
23	662	multi_trial	0.4	60	30	1	L	R
23	4000	multi_trial	0.4	60	31	-1	timeout	R
23	3739	multi_trial	0.4	60	32	1	R	R
23	2919	multi_trial	0.4	60	33	0	R	R
23	1494	multi_trial	0.4	60	34	1	R	R
23	1878	multi_trial	0.4	60	35	0	L	R
23	807	multi_trial	0.4	60	36	1	R	R
23	1863	multi_trial	0.4	60	37	1	R	R
23	518	multi_trial	0.4	60	38	1	R	R
23	567	multi_trial	0.4	60	39	0	L	R
23	550	multi_trial	0.4	60	40	1	L	R
23	583	multi_trial	0.4	60	41	0	L	R
23	661	multi_trial	0.4	60	42	1	L	R
23	934	multi_trial	0.4	60	43	1	R	R
23	2038	multi_trial	0.4	60	44	0	R	R
23	823	multi_trial	0.4	60	45	1	R	R
23	374	multi_trial	0.4	60	46	0	R	R
23	135	multi_trial	0.4	60	47	0	R	R
23	630	multi_trial	0.4	60	48	0	R	R
23	2470	multi_trial	0.4	60	49	0	R	R
23	839	multi_trial	0.4	60	50	0	L	R
23	3864	elicit_prevalence	0.4	60	catch1	NA	2	R
23	5104	elicit_prevalence	0.4	60	catch2	NA	2	R
23	3176	elicit_prevalence	0.4	60	catch3	NA	20	R
23	8048	elicit_prevalence	0.4	60	prevalence	NA	40	R
24	1443	multi_trial	0.6	60	1	1	R	L
24	1162	multi_trial	0.6	60	2	0	R	L
24	911	multi_trial	0.6	60	3	0	R	L
24	743	multi_trial	0.6	60	4	0	R	L
24	1018	multi_trial	0.6	60	5	1	R	L
24	922	multi_trial	0.6	60	6	1	R	L
24	918	multi_trial	0.6	60	7	0	R	L
24	748	multi_trial	0.6	60	8	0	R	L
24	647	multi_trial	0.6	60	9	1	R	L
24	1260	multi_trial	0.6	60	10	1	R	L
24	879	multi_trial	0.6	60	11	1	R	L
24	1448	multi_trial	0.6	60	12	0	R	L
24	819	multi_trial	0.6	60	13	0	R	L
24	587	multi_trial	0.6	60	14	0	R	L
24	743	multi_trial	0.6	60	15	0	R	L
24	1100	multi_trial	0.6	60	16	1	R	L
24	759	multi_trial	0.6	60	17	1	R	L
24	1300	multi_trial	0.6	60	18	1	R	L
24	1015	multi_trial	0.6	60	19	0	R	L
24	2000	multi_trial	0.6	60	20	-1	timeout	L
24	1368	multi_trial	0.6	60	21	1	L	L
24	583	multi_trial	0.6	60	22	1	L	L
24	2000	multi_trial	0.6	60	23	-1	timeout	L
24	1139	multi_trial	0.6	60	24	0	R	L
24	531	multi_trial	0.6	60	25	1	L	L
24	719	multi_trial	0.6	60	26	0	L	L
24	546	multi_trial	0.6	60	27	0	R	L
24	577	multi_trial	0.6	60	28	1	L	L
24	1624	multi_trial	0.6	60	29	0	L	L
24	657	multi_trial	0.6	60	30	0	R	L
24	684	multi_trial	0.6	60	31	1	R	L
24	873	multi_trial	0.6	60	32	0	R	L
24	635	multi_trial	0.6	60	33	1	R	L
24	720	multi_trial	0.6	60	34	0	R	L
24	790	multi_trial	0.6	60	35	1	R	L
24	560	multi_trial	0.6	60	36	0	L	L
24	534	multi_trial	0.6	60	37	1	L	L
24	603	multi_trial	0.6	60	38	1	L	L
24	651	multi_trial	0.6	60	39	1	L	L
24	1499	multi_trial	0.6	60	40	1	L	L
24	1590	multi_trial	0.6	60	41	0	R	L
24	576	multi_trial	0.6	60	42	1	R	L
24	580	multi_trial	0.6	60	43	0	R	L
24	612	multi_trial	0.6	60	44	0	L	L
24	563	multi_trial	0.6	60	45	0	R	L
24	586	multi_trial	0.6	60	46	0	R	L
24	629	multi_trial	0.6	60	47	1	R	L
24	1217	multi_trial	0.6	60	48	1	R	L
24	1276	multi_trial	0.6	60	49	0	R	L
24	679	multi_trial	0.6	60	50	0	R	L
24	9731	elicit_prevalence	0.6	60	catch1	NA	2	L
24	14026	elicit_prevalence	0.6	60	catch2	NA	0	L
24	7214	elicit_prevalence	0.6	60	catch3	NA	4	L
24	11609	elicit_prevalence	0.6	60	prevalence	NA	60	L